"trial_type","trial_index","time_elapsed","internal_node_id","subject","participantCode","walkNumber","success","rt","stimulus","key_press","test_part","leftProb","midProb","rightProb","generatedNum","correct"
"pavlovia",0,1411,"0.0-0.0","yaafl1lj5ah4r2a",715,"96.csv","","","","","",NA,NA,NA,NA,""
"fullscreen",1,6158,"0.0-1.0","yaafl1lj5ah4r2a",715,"96.csv","true","","","","",NA,NA,NA,NA,""
"html-keyboard-response",2,11416,"0.0-2.0-0.0","yaafl1lj5ah4r2a",715,"96.csv","","5257","<p><font size='6'>Arrrgh!</p></font><p>Can you be the best pirate? Try to find lots of gold! But beware, some islands have more gold than others, and over time, the island with the most gold may change. Can YOU figure it out? </p><font size='6'>GOOD LUCK, CAPTAIN!!!</font><p>Press any key to begin</p>","32","",NA,NA,NA,NA,""
"image-keyboard-response",3,14419,"0.0-2.0-1.0","yaafl1lj5ah4r2a",715,"96.csv","","null","resources/image_sets/111.png","null","",NA,NA,NA,NA,""
"image-keyboard-response",4,17229,"0.0-2.0-2.0","yaafl1lj5ah4r2a",715,"96.csv","","2809","resources/image_sets/left_highlight.png","37","",NA,NA,NA,NA,""
"image-keyboard-response",5,20114,"0.0-2.0-3.0","yaafl1lj5ah4r2a",715,"96.csv","","2883.9999999999964","resources/image_sets/mid_highlight.png","38","",NA,NA,NA,NA,""
"image-keyboard-response",6,21310,"0.0-2.0-4.0","yaafl1lj5ah4r2a",715,"96.csv","","1193","resources/image_sets/right_highlight.png","39","",NA,NA,NA,NA,""
"image-keyboard-response",7,24051,"0.0-2.0-5.0","yaafl1lj5ah4r2a",715,"96.csv","","2740","resources/image_sets/111.png","13","",NA,NA,NA,NA,""
"image-keyboard-response",8,28057,"0.0-2.0-6.0","yaafl1lj5ah4r2a",715,"96.csv","","4006.0000000000036","resources/images/coin2.png","13","",NA,NA,NA,NA,""
"image-keyboard-response",9,29944,"0.0-2.0-7.0","yaafl1lj5ah4r2a",715,"96.csv","","1886.0000000000073","resources/images/fishbone.png","13","",NA,NA,NA,NA,""
"html-keyboard-response",10,36561,"0.0-2.0-8.0","yaafl1lj5ah4r2a",715,"96.csv","","6615.000000000007","<p>Your first journey will be a long one, but you will get a well deserved break at the end</p><p>After the break you will have four more journeys, but each will be much shorter than the first, and you will have breaks in between each</p><p>Press Enter to begin</p>","13","",NA,NA,NA,NA,""
"image-keyboard-response",11,43565,"0.0-3.0-0.0","yaafl1lj5ah4r2a",715,"96.csv","","7004","resources/trios/L1T4A1.jpg","38","restless",0.7,0.9,0.3,0.616533533823248,"true"
"image-keyboard-response",12,43967,"0.0-3.0-1.0","yaafl1lj5ah4r2a",715,"96.csv","","null","resources/maskTrios/BT4B.jpg","null","",NA,NA,NA,NA,""
"image-keyboard-response",13,45169,"0.0-3.0-2.0","yaafl1lj5ah4r2a",715,"96.csv","","null","resources/images/coin2.png","null","",NA,NA,NA,NA,""
"image-keyboard-response",14,49525,"0.0-3.1-0.1","yaafl1lj5ah4r2a",715,"96.csv","","4354","resources/trios/L2T1A3.jpg","37","restless",0.7,0.8,0.3,0.624283656535406,"true"
"image-keyboard-response",15,49927,"0.0-3.1-1.1","yaafl1lj5ah4r2a",715,"96.csv","","null","resources/maskTrios/L2BB.jpg","null","",NA,NA,NA,NA,""
"image-keyboard-response",16,51130,"0.0-3.1-2.1","yaafl1lj5ah4r2a",715,"96.csv","","null","resources/images/coin2.png","null","",NA,NA,NA,NA,""
"image-keyboard-response",17,56862,"0.0-3.2-0.2","yaafl1lj5ah4r2a",715,"96.csv","","5731.999999999993","resources/trios/L2T1A1.jpg","38","restless",0.7,0.8,0.3,0.64974625563272,"true"
"image-keyboard-response",18,57265,"0.0-3.2-1.2","yaafl1lj5ah4r2a",715,"96.csv","","null","resources/maskTrios/BT1B.jpg","null","",NA,NA,NA,NA,""
"image-keyboard-response",19,58467,"0.0-3.2-2.2","yaafl1lj5ah4r2a",715,"96.csv","","null","resources/images/coin2.png","null","",NA,NA,NA,NA,""
"image-keyboard-response",20,63152,"0.0-3.3-0.3","yaafl1lj5ah4r2a",715,"96.csv","","4684","resources/trios/L1T1A3.jpg","37","restless",0.7,0.8,0.3,0.771132539097054,"false"
"image-keyboard-response",21,63554,"0.0-3.3-1.3","yaafl1lj5ah4r2a",715,"96.csv","","null","resources/maskTrios/L1BB.jpg","null","",NA,NA,NA,NA,""
"image-keyboard-response",22,64756,"0.0-3.3-2.3","yaafl1lj5ah4r2a",715,"96.csv","","null","resources/images/fishbone.png","null","",NA,NA,NA,NA,""
"image-keyboard-response",23,66942,"0.0-3.4-0.4","yaafl1lj5ah4r2a",715,"96.csv","","2185","resources/trios/L1T1A3.jpg","38","restless",0.7,0.8,0.3,0.120100566871782,"true"
"image-keyboard-response",24,67344,"0.0-3.4-1.4","yaafl1lj5ah4r2a",715,"96.csv","","null","resources/maskTrios/BT1B.jpg","null","",NA,NA,NA,NA,""
"image-keyboard-response",25,68546,"0.0-3.4-2.4","yaafl1lj5ah4r2a",715,"96.csv","","null","resources/images/coin2.png","null","",NA,NA,NA,NA,""
"image-keyboard-response",26,69934,"0.0-3.5-0.5","yaafl1lj5ah4r2a",715,"96.csv","","1386","resources/trios/L1T1A1.jpg","38","restless",0.7,0.8,0.3,0.0642011697641928,"true"
"image-keyboard-response",27,70336,"0.0-3.5-1.5","yaafl1lj5ah4r2a",715,"96.csv","","null","resources/maskTrios/BT1B.jpg","null","",NA,NA,NA,NA,""
"image-keyboard-response",28,71538,"0.0-3.5-2.5","yaafl1lj5ah4r2a",715,"96.csv","","null","resources/images/coin2.png","null","",NA,NA,NA,NA,""
"image-keyboard-response",29,73689,"0.0-3.6-0.6","yaafl1lj5ah4r2a",715,"96.csv","","2149","resources/trios/L2T4A1.jpg","37","restless",0.7,0.8,0.3,0.231746487037527,"true"
"image-keyboard-response",30,74091,"0.0-3.6-1.6","yaafl1lj5ah4r2a",715,"96.csv","","null","resources/maskTrios/L2BB.jpg","null","",NA,NA,NA,NA,""
"image-keyboard-response",31,75292,"0.0-3.6-2.6","yaafl1lj5ah4r2a",715,"96.csv","","null","resources/images/coin2.png","null","",NA,NA,NA,NA,""
"image-keyboard-response",32,76849,"0.0-3.7-0.7","yaafl1lj5ah4r2a",715,"96.csv","","1555","resources/trios/L2T4A3.jpg","38","restless",0.7,0.8,0.2,0.936487490310084,"false"
"image-keyboard-response",33,77251,"0.0-3.7-1.7","yaafl1lj5ah4r2a",715,"96.csv","","null","resources/maskTrios/BT4B.jpg","null","",NA,NA,NA,NA,""
"image-keyboard-response",34,78453,"0.0-3.7-2.7","yaafl1lj5ah4r2a",715,"96.csv","","null","resources/images/fishbone.png","null","",NA,NA,NA,NA,""
"image-keyboard-response",35,78942,"0.0-3.8-0.8","yaafl1lj5ah4r2a",715,"96.csv","","487","resources/trios/L2T4A3.jpg","37","restless",0.7,0.8,0.2,0.264488340107836,"true"
"image-keyboard-response",36,79344,"0.0-3.8-1.8","yaafl1lj5ah4r2a",715,"96.csv","","null","resources/maskTrios/L2BB.jpg","null","",NA,NA,NA,NA,""
"image-keyboard-response",37,80546,"0.0-3.8-2.8","yaafl1lj5ah4r2a",715,"96.csv","","null","resources/images/coin2.png","null","",NA,NA,NA,NA,""
"image-keyboard-response",38,86980,"0.0-3.9-0.9","yaafl1lj5ah4r2a",715,"96.csv","","6432","resources/trios/L1T4A1.jpg","38","restless",0.7,0.8,0.2,0.226014792481721,"true"
"image-keyboard-response",39,87381,"0.0-3.9-1.9","yaafl1lj5ah4r2a",715,"96.csv","","null","resources/maskTrios/BT4B.jpg","null","",NA,NA,NA,NA,""
"image-keyboard-response",40,88584,"0.0-3.9-2.9","yaafl1lj5ah4r2a",715,"96.csv","","null","resources/images/coin2.png","null","",NA,NA,NA,NA,""
"image-keyboard-response",41,90335,"0.0-3.10-0.10","yaafl1lj5ah4r2a",715,"96.csv","","1750","resources/trios/L1T1A3.jpg","38","restless",0.7,0.8,0.2,0.613992986013033,"true"
"image-keyboard-response",42,90737,"0.0-3.10-1.10","yaafl1lj5ah4r2a",715,"96.csv","","null","resources/maskTrios/BT1B.jpg","null","",NA,NA,NA,NA,""
"image-keyboard-response",43,91939,"0.0-3.10-2.10","yaafl1lj5ah4r2a",715,"96.csv","","null","resources/images/coin2.png","null","",NA,NA,NA,NA,""
"image-keyboard-response",44,93821,"0.0-3.11-0.11","yaafl1lj5ah4r2a",715,"96.csv","","1881","resources/trios/L2T4A3.jpg","37","restless",0.7,0.8,0.1,0.836684538573223,"false"
"image-keyboard-response",45,94223,"0.0-3.11-1.11","yaafl1lj5ah4r2a",715,"96.csv","","null","resources/maskTrios/L2BB.jpg","null","",NA,NA,NA,NA,""
"image-keyboard-response",46,95425,"0.0-3.11-2.11","yaafl1lj5ah4r2a",715,"96.csv","","null","resources/images/fishbone.png","null","",NA,NA,NA,NA,""
"image-keyboard-response",47,95870,"0.0-3.12-0.12","yaafl1lj5ah4r2a",715,"96.csv","","444","resources/trios/L1T1A1.jpg","38","restless",0.6,0.8,0.1,0.232782435759721,"true"
"image-keyboard-response",48,96272,"0.0-3.12-1.12","yaafl1lj5ah4r2a",715,"96.csv","","null","resources/maskTrios/BT1B.jpg","null","",NA,NA,NA,NA,""
"image-keyboard-response",49,97474,"0.0-3.12-2.12","yaafl1lj5ah4r2a",715,"96.csv","","null","resources/images/coin2.png","null","",NA,NA,NA,NA,""
"image-keyboard-response",50,101176,"0.0-3.13-0.13","yaafl1lj5ah4r2a",715,"96.csv","","3700.9999999999854","resources/trios/L2T1A3.jpg","38","restless",0.6,0.8,0.1,0.823580344471582,"false"
"image-keyboard-response",51,101579,"0.0-3.13-1.13","yaafl1lj5ah4r2a",715,"96.csv","","null","resources/maskTrios/BT1B.jpg","null","",NA,NA,NA,NA,""
"image-keyboard-response",52,102781,"0.0-3.13-2.13","yaafl1lj5ah4r2a",715,"96.csv","","null","resources/images/fishbone.png","null","",NA,NA,NA,NA,""
"image-keyboard-response",53,103084,"0.0-3.14-0.14","yaafl1lj5ah4r2a",715,"96.csv","","302","resources/trios/L1T1A3.jpg","37","restless",0.6,0.8,0.1,0.594906917605748,"true"
"image-keyboard-response",54,103486,"0.0-3.14-1.14","yaafl1lj5ah4r2a",715,"96.csv","","null","resources/maskTrios/L1BB.jpg","null","",NA,NA,NA,NA,""
"image-keyboard-response",55,104689,"0.0-3.14-2.14","yaafl1lj5ah4r2a",715,"96.csv","","null","resources/images/coin2.png","null","",NA,NA,NA,NA,""
"image-keyboard-response",56,106432,"0.0-3.15-0.15","yaafl1lj5ah4r2a",715,"96.csv","","1742","resources/trios/L2T1A1.jpg","38","restless",0.6,0.8,0.1,0.421619240989025,"true"
"image-keyboard-response",57,106835,"0.0-3.15-1.15","yaafl1lj5ah4r2a",715,"96.csv","","null","resources/maskTrios/BT1B.jpg","null","",NA,NA,NA,NA,""
"image-keyboard-response",58,108037,"0.0-3.15-2.15","yaafl1lj5ah4r2a",715,"96.csv","","null","resources/images/coin2.png","null","",NA,NA,NA,NA,""
"image-keyboard-response",59,109225,"0.0-3.16-0.16","yaafl1lj5ah4r2a",715,"96.csv","","1187.0000000000146","resources/trios/L1T4A1.jpg","37","restless",0.6,0.8,0.2,0.562858245289964,"true"
"image-keyboard-response",60,109628,"0.0-3.16-1.16","yaafl1lj5ah4r2a",715,"96.csv","","null","resources/maskTrios/L1BB.jpg","null","",NA,NA,NA,NA,""
"image-keyboard-response",61,110830,"0.0-3.16-2.16","yaafl1lj5ah4r2a",715,"96.csv","","null","resources/images/coin2.png","null","",NA,NA,NA,NA,""
"image-keyboard-response",62,112078,"0.0-3.17-0.17","yaafl1lj5ah4r2a",715,"96.csv","","1247","resources/trios/L1T1A1.jpg","38","restless",0.6,0.7,0.2,0.676937097567268,"true"
"image-keyboard-response",63,112481,"0.0-3.17-1.17","yaafl1lj5ah4r2a",715,"96.csv","","null","resources/maskTrios/BT1B.jpg","null","",NA,NA,NA,NA,""
"image-keyboard-response",64,113683,"0.0-3.17-2.17","yaafl1lj5ah4r2a",715,"96.csv","","null","resources/images/coin2.png","null","",NA,NA,NA,NA,""
"image-keyboard-response",65,114446,"0.0-3.18-0.18","yaafl1lj5ah4r2a",715,"96.csv","","763","resources/trios/L2T4A1.jpg","37","restless",0.6,0.7,0.2,0.497115867322273,"true"
"image-keyboard-response",66,114849,"0.0-3.18-1.18","yaafl1lj5ah4r2a",715,"96.csv","","null","resources/maskTrios/L2BB.jpg","null","",NA,NA,NA,NA,""
"image-keyboard-response",67,116051,"0.0-3.18-2.18","yaafl1lj5ah4r2a",715,"96.csv","","null","resources/images/coin2.png","null","",NA,NA,NA,NA,""
"image-keyboard-response",68,116960,"0.0-3.19-0.19","yaafl1lj5ah4r2a",715,"96.csv","","909","resources/trios/L2T1A3.jpg","38","restless",0.6,0.7,0.2,0.207472423371609,"true"
"image-keyboard-response",69,117363,"0.0-3.19-1.19","yaafl1lj5ah4r2a",715,"96.csv","","null","resources/maskTrios/BT1B.jpg","null","",NA,NA,NA,NA,""
"image-keyboard-response",70,118565,"0.0-3.19-2.19","yaafl1lj5ah4r2a",715,"96.csv","","null","resources/images/coin2.png","null","",NA,NA,NA,NA,""
"image-keyboard-response",71,119308,"0.0-3.20-0.20","yaafl1lj5ah4r2a",715,"96.csv","","743","resources/trios/L1T4A3.jpg","37","restless",0.6,0.7,0.2,0.768517137855204,"false"
"image-keyboard-response",72,119711,"0.0-3.20-1.20","yaafl1lj5ah4r2a",715,"96.csv","","null","resources/maskTrios/L1BB.jpg","null","",NA,NA,NA,NA,""
"image-keyboard-response",73,120913,"0.0-3.20-2.20","yaafl1lj5ah4r2a",715,"96.csv","","null","resources/images/fishbone.png","null","",NA,NA,NA,NA,""
"image-keyboard-response",74,121612,"0.0-3.21-0.21","yaafl1lj5ah4r2a",715,"96.csv","","699.0000000000146","resources/trios/L1T1A3.jpg","38","restless",0.6,0.7,0.1,0.586776261349534,"true"
"image-keyboard-response",75,122015,"0.0-3.21-1.21","yaafl1lj5ah4r2a",715,"96.csv","","null","resources/maskTrios/BT1B.jpg","null","",NA,NA,NA,NA,""
"image-keyboard-response",76,123217,"0.0-3.21-2.21","yaafl1lj5ah4r2a",715,"96.csv","","null","resources/images/coin2.png","null","",NA,NA,NA,NA,""
"image-keyboard-response",77,124893,"0.0-3.22-0.22","yaafl1lj5ah4r2a",715,"96.csv","","1676.0000000000146","resources/trios/L1T1A1.jpg","38","restless",0.6,0.6,0.1,0.0179273700887304,"true"
"image-keyboard-response",78,125296,"0.0-3.22-1.22","yaafl1lj5ah4r2a",715,"96.csv","","null","resources/maskTrios/BT1B.jpg","null","",NA,NA,NA,NA,""
"image-keyboard-response",79,126498,"0.0-3.22-2.22","yaafl1lj5ah4r2a",715,"96.csv","","null","resources/images/coin2.png","null","",NA,NA,NA,NA,""
"image-keyboard-response",80,127400,"0.0-3.23-0.23","yaafl1lj5ah4r2a",715,"96.csv","","898.9999999999854","resources/trios/L2T4A3.jpg","37","restless",0.6,0.6,0.1,0.166932081526907,"true"
"image-keyboard-response",81,127802,"0.0-3.23-1.23","yaafl1lj5ah4r2a",715,"96.csv","","null","resources/maskTrios/L2BB.jpg","null","",NA,NA,NA,NA,""
"image-keyboard-response",82,129004,"0.0-3.23-2.23","yaafl1lj5ah4r2a",715,"96.csv","","null","resources/images/coin2.png","null","",NA,NA,NA,NA,""
"image-keyboard-response",83,135513,"0.0-3.24-0.24","yaafl1lj5ah4r2a",715,"96.csv","","6508","resources/trios/L2T1A3.jpg","37","restless",0.6,0.6,0.1,0.376678006075723,"true"
"image-keyboard-response",84,135915,"0.0-3.24-1.24","yaafl1lj5ah4r2a",715,"96.csv","","null","resources/maskTrios/L2BB.jpg","null","",NA,NA,NA,NA,""
"image-keyboard-response",85,137118,"0.0-3.24-2.24","yaafl1lj5ah4r2a",715,"96.csv","","null","resources/images/coin2.png","null","",NA,NA,NA,NA,""
"image-keyboard-response",86,139096,"0.0-3.25-0.25","yaafl1lj5ah4r2a",715,"96.csv","","1977","resources/trios/L1T1A1.jpg","38","restless",0.6,0.5,0.1,0.6835129920897,"false"
"image-keyboard-response",87,139498,"0.0-3.25-1.25","yaafl1lj5ah4r2a",715,"96.csv","","null","resources/maskTrios/BT1B.jpg","null","",NA,NA,NA,NA,""
"image-keyboard-response",88,140700,"0.0-3.25-2.25","yaafl1lj5ah4r2a",715,"96.csv","","null","resources/images/fishbone.png","null","",NA,NA,NA,NA,""
"image-keyboard-response",89,141050,"0.0-3.26-0.26","yaafl1lj5ah4r2a",715,"96.csv","","349","resources/trios/L2T1A1.jpg","37","restless",0.6,0.5,0.1,0.72967070566493,"false"
"image-keyboard-response",90,141453,"0.0-3.26-1.26","yaafl1lj5ah4r2a",715,"96.csv","","null","resources/maskTrios/L2BB.jpg","null","",NA,NA,NA,NA,""
"image-keyboard-response",91,142655,"0.0-3.26-2.26","yaafl1lj5ah4r2a",715,"96.csv","","null","resources/images/fishbone.png","null","",NA,NA,NA,NA,""
"image-keyboard-response",92,143087,"0.0-3.27-0.27","yaafl1lj5ah4r2a",715,"96.csv","","431","resources/trios/L2T4A1.jpg","39","restless",0.6,0.5,0.1,0.394399074425564,"false"
"image-keyboard-response",93,143489,"0.0-3.27-1.27","yaafl1lj5ah4r2a",715,"96.csv","","null","resources/maskTrios/BBA1.jpg","null","",NA,NA,NA,NA,""
"image-keyboard-response",94,144690,"0.0-3.27-2.27","yaafl1lj5ah4r2a",715,"96.csv","","null","resources/images/fishbone.png","null","",NA,NA,NA,NA,""
"image-keyboard-response",95,146309,"0.0-3.28-0.28","yaafl1lj5ah4r2a",715,"96.csv","","1618","resources/trios/L2T1A1.jpg","38","restless",0.6,0.5,0.1,0.270436276029533,"true"
"image-keyboard-response",96,146712,"0.0-3.28-1.28","yaafl1lj5ah4r2a",715,"96.csv","","null","resources/maskTrios/BT1B.jpg","null","",NA,NA,NA,NA,""
"image-keyboard-response",97,147914,"0.0-3.28-2.28","yaafl1lj5ah4r2a",715,"96.csv","","null","resources/images/coin2.png","null","",NA,NA,NA,NA,""
"image-keyboard-response",98,151294,"0.0-3.29-0.29","yaafl1lj5ah4r2a",715,"96.csv","","3379","resources/trios/L1T1A3.jpg","38","restless",0.6,0.5,0.1,0.997561743452221,"false"
"image-keyboard-response",99,151697,"0.0-3.29-1.29","yaafl1lj5ah4r2a",715,"96.csv","","null","resources/maskTrios/BT1B.jpg","null","",NA,NA,NA,NA,""
"image-keyboard-response",100,152899,"0.0-3.29-2.29","yaafl1lj5ah4r2a",715,"96.csv","","null","resources/images/fishbone.png","null","",NA,NA,NA,NA,""
"image-keyboard-response",101,153142,"0.0-3.30-0.30","yaafl1lj5ah4r2a",715,"96.csv","","241","resources/trios/L1T4A1.jpg","37","restless",0.6,0.5,0.1,0.13645535815608,"true"
"image-keyboard-response",102,153544,"0.0-3.30-1.30","yaafl1lj5ah4r2a",715,"96.csv","","null","resources/maskTrios/L1BB.jpg","null","",NA,NA,NA,NA,""
"image-keyboard-response",103,154750,"0.0-3.30-2.30","yaafl1lj5ah4r2a",715,"96.csv","","null","resources/images/coin2.png","null","",NA,NA,NA,NA,""
"image-keyboard-response",104,156870,"0.0-3.31-0.31","yaafl1lj5ah4r2a",715,"96.csv","","2117","resources/trios/L1T4A3.jpg","38","restless",0.6,0.5,0.2,0.381511061393821,"true"
"image-keyboard-response",105,157272,"0.0-3.31-1.31","yaafl1lj5ah4r2a",715,"96.csv","","null","resources/maskTrios/BT4B.jpg","null","",NA,NA,NA,NA,""
"image-keyboard-response",106,158474,"0.0-3.31-2.31","yaafl1lj5ah4r2a",715,"96.csv","","null","resources/images/coin2.png","null","",NA,NA,NA,NA,""
"image-keyboard-response",107,159801,"0.0-3.32-0.32","yaafl1lj5ah4r2a",715,"96.csv","","1326","resources/trios/L1T1A1.jpg","37","restless",0.6,0.5,0.2,0.569750381421294,"true"
"image-keyboard-response",108,160202,"0.0-3.32-1.32","yaafl1lj5ah4r2a",715,"96.csv","","null","resources/maskTrios/L1BB.jpg","null","",NA,NA,NA,NA,""
"image-keyboard-response",109,161404,"0.0-3.32-2.32","yaafl1lj5ah4r2a",715,"96.csv","","null","resources/images/coin2.png","null","",NA,NA,NA,NA,""
"image-keyboard-response",110,161965,"0.0-3.33-0.33","yaafl1lj5ah4r2a",715,"96.csv","","559","resources/trios/L1T4A3.jpg","38","restless",0.6,0.5,0.2,0.810146609396976,"false"
"image-keyboard-response",111,162367,"0.0-3.33-1.33","yaafl1lj5ah4r2a",715,"96.csv","","null","resources/maskTrios/BT4B.jpg","null","",NA,NA,NA,NA,""
"image-keyboard-response",112,163569,"0.0-3.33-2.33","yaafl1lj5ah4r2a",715,"96.csv","","null","resources/images/fishbone.png","null","",NA,NA,NA,NA,""
"image-keyboard-response",113,164773,"0.0-3.34-0.34","yaafl1lj5ah4r2a",715,"96.csv","","1201","resources/trios/L2T4A3.jpg","37","restless",0.6,0.5,0.2,0.247745323906182,"true"
"image-keyboard-response",114,165175,"0.0-3.34-1.34","yaafl1lj5ah4r2a",715,"96.csv","","null","resources/maskTrios/L2BB.jpg","null","",NA,NA,NA,NA,""
"image-keyboard-response",115,166377,"0.0-3.34-2.34","yaafl1lj5ah4r2a",715,"96.csv","","null","resources/images/coin2.png","null","",NA,NA,NA,NA,""
"image-keyboard-response",116,167604,"0.0-3.35-0.35","yaafl1lj5ah4r2a",715,"96.csv","","1226.000000000029","resources/trios/L1T4A3.jpg","38","restless",0.7,0.6,0.2,0.240223589635052,"true"
"image-keyboard-response",117,168007,"0.0-3.35-1.35","yaafl1lj5ah4r2a",715,"96.csv","","null","resources/maskTrios/BT4B.jpg","null","",NA,NA,NA,NA,""
"image-keyboard-response",118,169210,"0.0-3.35-2.35","yaafl1lj5ah4r2a",715,"96.csv","","null","resources/images/coin2.png","null","",NA,NA,NA,NA,""
"image-keyboard-response",119,171447,"0.0-3.36-0.36","yaafl1lj5ah4r2a",715,"96.csv","","2235.999999999971","resources/trios/L2T1A1.jpg","37","restless",0.7,0.6,0.2,0.400297373928322,"true"
"image-keyboard-response",120,171849,"0.0-3.36-1.36","yaafl1lj5ah4r2a",715,"96.csv","","null","resources/maskTrios/L2BB.jpg","null","",NA,NA,NA,NA,""
"image-keyboard-response",121,173051,"0.0-3.36-2.36","yaafl1lj5ah4r2a",715,"96.csv","","null","resources/images/coin2.png","null","",NA,NA,NA,NA,""
"image-keyboard-response",122,175255,"0.0-3.37-0.37","yaafl1lj5ah4r2a",715,"96.csv","","2203","resources/trios/L2T1A1.jpg","38","restless",0.7,0.6,0.2,0.70461104784989,"false"
"image-keyboard-response",123,175657,"0.0-3.37-1.37","yaafl1lj5ah4r2a",715,"96.csv","","null","resources/maskTrios/BT1B.jpg","null","",NA,NA,NA,NA,""
"image-keyboard-response",124,176859,"0.0-3.37-2.37","yaafl1lj5ah4r2a",715,"96.csv","","null","resources/images/fishbone.png","null","",NA,NA,NA,NA,""
"image-keyboard-response",125,177386,"0.0-3.38-0.38","yaafl1lj5ah4r2a",715,"96.csv","","525","resources/trios/L2T1A3.jpg","37","restless",0.7,0.6,0.2,0.470560165558507,"true"
"image-keyboard-response",126,177788,"0.0-3.38-1.38","yaafl1lj5ah4r2a",715,"96.csv","","null","resources/maskTrios/L2BB.jpg","null","",NA,NA,NA,NA,""
"image-keyboard-response",127,178991,"0.0-3.38-2.38","yaafl1lj5ah4r2a",715,"96.csv","","null","resources/images/coin2.png","null","",NA,NA,NA,NA,""
"image-keyboard-response",128,182622,"0.0-3.39-0.39","yaafl1lj5ah4r2a",715,"96.csv","","3629.999999999971","resources/trios/L1T1A3.jpg","38","restless",0.7,0.6,0.1,0.973705660499877,"false"
"image-keyboard-response",129,183025,"0.0-3.39-1.39","yaafl1lj5ah4r2a",715,"96.csv","","null","resources/maskTrios/BT1B.jpg","null","",NA,NA,NA,NA,""
"image-keyboard-response",130,184227,"0.0-3.39-2.39","yaafl1lj5ah4r2a",715,"96.csv","","null","resources/images/fishbone.png","null","",NA,NA,NA,NA,""
"image-keyboard-response",131,184521,"0.0-3.40-0.40","yaafl1lj5ah4r2a",715,"96.csv","","293","resources/trios/L1T4A3.jpg","37","restless",0.7,0.7,0.1,0.695432342568795,"true"
"image-keyboard-response",132,184924,"0.0-3.40-1.40","yaafl1lj5ah4r2a",715,"96.csv","","null","resources/maskTrios/L1BB.jpg","null","",NA,NA,NA,NA,""
"image-keyboard-response",133,186126,"0.0-3.40-2.40","yaafl1lj5ah4r2a",715,"96.csv","","null","resources/images/coin2.png","null","",NA,NA,NA,NA,""
"image-keyboard-response",134,188176,"0.0-3.41-0.41","yaafl1lj5ah4r2a",715,"96.csv","","2049","resources/trios/L1T4A3.jpg","38","restless",0.7,0.7,0.1,0.524580249329802,"true"
"image-keyboard-response",135,188579,"0.0-3.41-1.41","yaafl1lj5ah4r2a",715,"96.csv","","null","resources/maskTrios/BT4B.jpg","null","",NA,NA,NA,NA,""
"image-keyboard-response",136,189781,"0.0-3.41-2.41","yaafl1lj5ah4r2a",715,"96.csv","","null","resources/images/coin2.png","null","",NA,NA,NA,NA,""
"image-keyboard-response",137,190934,"0.0-3.42-0.42","yaafl1lj5ah4r2a",715,"96.csv","","1152","resources/trios/L1T4A3.jpg","37","restless",0.7,0.7,0.1,0.614213213294164,"true"
"image-keyboard-response",138,191336,"0.0-3.42-1.42","yaafl1lj5ah4r2a",715,"96.csv","","null","resources/maskTrios/L1BB.jpg","null","",NA,NA,NA,NA,""
"image-keyboard-response",139,192539,"0.0-3.42-2.42","yaafl1lj5ah4r2a",715,"96.csv","","null","resources/images/coin2.png","null","",NA,NA,NA,NA,""
"image-keyboard-response",140,195055,"0.0-3.43-0.43","yaafl1lj5ah4r2a",715,"96.csv","","2515","resources/trios/L2T1A3.jpg","37","restless",0.6,0.7,0.1,0.106295641903374,"true"
"image-keyboard-response",141,195457,"0.0-3.43-1.43","yaafl1lj5ah4r2a",715,"96.csv","","null","resources/maskTrios/L2BB.jpg","null","",NA,NA,NA,NA,""
"image-keyboard-response",142,196660,"0.0-3.43-2.43","yaafl1lj5ah4r2a",715,"96.csv","","null","resources/images/coin2.png","null","",NA,NA,NA,NA,""
"image-keyboard-response",143,197538,"0.0-3.44-0.44","yaafl1lj5ah4r2a",715,"96.csv","","877","resources/trios/L2T4A3.jpg","38","restless",0.6,0.7,0.1,0.0198541049406746,"true"
"image-keyboard-response",144,197941,"0.0-3.44-1.44","yaafl1lj5ah4r2a",715,"96.csv","","null","resources/maskTrios/BT4B.jpg","null","",NA,NA,NA,NA,""
"image-keyboard-response",145,199144,"0.0-3.44-2.44","yaafl1lj5ah4r2a",715,"96.csv","","null","resources/images/coin2.png","null","",NA,NA,NA,NA,""
"image-keyboard-response",146,200190,"0.0-3.45-0.45","yaafl1lj5ah4r2a",715,"96.csv","","1045","resources/trios/L1T4A3.jpg","38","restless",0.6,0.7,0.1,0.241402314532103,"true"
"image-keyboard-response",147,200592,"0.0-3.45-1.45","yaafl1lj5ah4r2a",715,"96.csv","","null","resources/maskTrios/BT4B.jpg","null","",NA,NA,NA,NA,""
"image-keyboard-response",148,201794,"0.0-3.45-2.45","yaafl1lj5ah4r2a",715,"96.csv","","null","resources/images/coin2.png","null","",NA,NA,NA,NA,""
"image-keyboard-response",149,202831,"0.0-3.46-0.46","yaafl1lj5ah4r2a",715,"96.csv","","1036","resources/trios/L2T4A3.jpg","37","restless",0.6,0.7,0.1,0.782860537130418,"false"
"image-keyboard-response",150,203233,"0.0-3.46-1.46","yaafl1lj5ah4r2a",715,"96.csv","","null","resources/maskTrios/L2BB.jpg","null","",NA,NA,NA,NA,""
"image-keyboard-response",151,204435,"0.0-3.46-2.46","yaafl1lj5ah4r2a",715,"96.csv","","null","resources/images/fishbone.png","null","",NA,NA,NA,NA,""
"image-keyboard-response",152,204794,"0.0-3.47-0.47","yaafl1lj5ah4r2a",715,"96.csv","","358","resources/trios/L2T1A1.jpg","38","restless",0.6,0.7,0.1,0.203614485698103,"true"
"image-keyboard-response",153,205196,"0.0-3.47-1.47","yaafl1lj5ah4r2a",715,"96.csv","","null","resources/maskTrios/BT1B.jpg","null","",NA,NA,NA,NA,""
"image-keyboard-response",154,206399,"0.0-3.47-2.47","yaafl1lj5ah4r2a",715,"96.csv","","null","resources/images/coin2.png","null","",NA,NA,NA,NA,""
"image-keyboard-response",155,207727,"0.0-3.48-0.48","yaafl1lj5ah4r2a",715,"96.csv","","1326","resources/trios/L1T1A1.jpg","38","restless",0.6,0.7,0.1,0.819873280452001,"false"
"image-keyboard-response",156,208129,"0.0-3.48-1.48","yaafl1lj5ah4r2a",715,"96.csv","","null","resources/maskTrios/BT1B.jpg","null","",NA,NA,NA,NA,""
"image-keyboard-response",157,209331,"0.0-3.48-2.48","yaafl1lj5ah4r2a",715,"96.csv","","null","resources/images/fishbone.png","null","",NA,NA,NA,NA,""
"image-keyboard-response",158,209640,"0.0-3.49-0.49","yaafl1lj5ah4r2a",715,"96.csv","","308","resources/trios/L1T4A3.jpg","37","restless",0.6,0.7,0.1,0.761683499221099,"false"
"image-keyboard-response",159,210042,"0.0-3.49-1.49","yaafl1lj5ah4r2a",715,"96.csv","","null","resources/maskTrios/L1BB.jpg","null","",NA,NA,NA,NA,""
"image-keyboard-response",160,211246,"0.0-3.49-2.49","yaafl1lj5ah4r2a",715,"96.csv","","null","resources/images/fishbone.png","null","",NA,NA,NA,NA,""
"image-keyboard-response",161,212094,"0.0-3.50-0.50","yaafl1lj5ah4r2a",715,"96.csv","","846.0000000000291","resources/trios/L1T4A3.jpg","38","restless",0.6,0.7,0.1,0.40315788445533,"true"
"image-keyboard-response",162,212496,"0.0-3.50-1.50","yaafl1lj5ah4r2a",715,"96.csv","","null","resources/maskTrios/BT4B.jpg","null","",NA,NA,NA,NA,""
"image-keyboard-response",163,213698,"0.0-3.50-2.50","yaafl1lj5ah4r2a",715,"96.csv","","null","resources/images/coin2.png","null","",NA,NA,NA,NA,""
"image-keyboard-response",164,215900,"0.0-3.51-0.51","yaafl1lj5ah4r2a",715,"96.csv","","2201","resources/trios/L1T1A1.jpg","38","restless",0.6,0.7,0.1,0.278457931665802,"true"
"image-keyboard-response",165,216302,"0.0-3.51-1.51","yaafl1lj5ah4r2a",715,"96.csv","","null","resources/maskTrios/BT1B.jpg","null","",NA,NA,NA,NA,""
"image-keyboard-response",166,217505,"0.0-3.51-2.51","yaafl1lj5ah4r2a",715,"96.csv","","null","resources/images/coin2.png","null","",NA,NA,NA,NA,""
"image-keyboard-response",167,219228,"0.0-3.52-0.52","yaafl1lj5ah4r2a",715,"96.csv","","1722","resources/trios/L1T4A1.jpg","38","restless",0.7,0.7,0.1,0.278221626968678,"true"
"image-keyboard-response",168,219630,"0.0-3.52-1.52","yaafl1lj5ah4r2a",715,"96.csv","","null","resources/maskTrios/BT4B.jpg","null","",NA,NA,NA,NA,""
"image-keyboard-response",169,220832,"0.0-3.52-2.52","yaafl1lj5ah4r2a",715,"96.csv","","null","resources/images/coin2.png","null","",NA,NA,NA,NA,""
"image-keyboard-response",170,222084,"0.0-3.53-0.53","yaafl1lj5ah4r2a",715,"96.csv","","1250","resources/trios/L1T1A1.jpg","38","restless",0.7,0.7,0.1,0.472936920271423,"true"
"image-keyboard-response",171,222486,"0.0-3.53-1.53","yaafl1lj5ah4r2a",715,"96.csv","","null","resources/maskTrios/BT1B.jpg","null","",NA,NA,NA,NA,""
"image-keyboard-response",172,223688,"0.0-3.53-2.53","yaafl1lj5ah4r2a",715,"96.csv","","null","resources/images/coin2.png","null","",NA,NA,NA,NA,""
"image-keyboard-response",173,224977,"0.0-3.54-0.54","yaafl1lj5ah4r2a",715,"96.csv","","1287.999999999971","resources/trios/L1T4A1.jpg","38","restless",0.7,0.7,0.1,0.448784237290525,"true"
"image-keyboard-response",174,225379,"0.0-3.54-1.54","yaafl1lj5ah4r2a",715,"96.csv","","null","resources/maskTrios/BT4B.jpg","null","",NA,NA,NA,NA,""
"image-keyboard-response",175,226582,"0.0-3.54-2.54","yaafl1lj5ah4r2a",715,"96.csv","","null","resources/images/coin2.png","null","",NA,NA,NA,NA,""
"image-keyboard-response",176,227726,"0.0-3.55-0.55","yaafl1lj5ah4r2a",715,"96.csv","","1143","resources/trios/L1T4A1.jpg","38","restless",0.7,0.7,0.1,0.901306452450492,"false"
"image-keyboard-response",177,228127,"0.0-3.55-1.55","yaafl1lj5ah4r2a",715,"96.csv","","null","resources/maskTrios/BT4B.jpg","null","",NA,NA,NA,NA,""
"image-keyboard-response",178,229330,"0.0-3.55-2.55","yaafl1lj5ah4r2a",715,"96.csv","","null","resources/images/fishbone.png","null","",NA,NA,NA,NA,""
"image-keyboard-response",179,229710,"0.0-3.56-0.56","yaafl1lj5ah4r2a",715,"96.csv","","379","resources/trios/L2T4A1.jpg","37","restless",0.7,0.7,0.1,0.340651425346418,"true"
"image-keyboard-response",180,230112,"0.0-3.56-1.56","yaafl1lj5ah4r2a",715,"96.csv","","null","resources/maskTrios/L2BB.jpg","null","",NA,NA,NA,NA,""
"image-keyboard-response",181,231314,"0.0-3.56-2.56","yaafl1lj5ah4r2a",715,"96.csv","","null","resources/images/coin2.png","null","",NA,NA,NA,NA,""
"image-keyboard-response",182,232706,"0.0-3.57-0.57","yaafl1lj5ah4r2a",715,"96.csv","","1390","resources/trios/L2T1A3.jpg","37","restless",0.7,0.7,0.1,0.753489284039938,"false"
"image-keyboard-response",183,233108,"0.0-3.57-1.57","yaafl1lj5ah4r2a",715,"96.csv","","null","resources/maskTrios/L2BB.jpg","null","",NA,NA,NA,NA,""
"image-keyboard-response",184,234310,"0.0-3.57-2.57","yaafl1lj5ah4r2a",715,"96.csv","","null","resources/images/fishbone.png","null","",NA,NA,NA,NA,""
"image-keyboard-response",185,234765,"0.0-3.58-0.58","yaafl1lj5ah4r2a",715,"96.csv","","454","resources/trios/L1T4A1.jpg","38","restless",0.8,0.7,0.1,0.750694804170209,"false"
"image-keyboard-response",186,235167,"0.0-3.58-1.58","yaafl1lj5ah4r2a",715,"96.csv","","null","resources/maskTrios/BT4B.jpg","null","",NA,NA,NA,NA,""
"image-keyboard-response",187,236368,"0.0-3.58-2.58","yaafl1lj5ah4r2a",715,"96.csv","","null","resources/images/fishbone.png","null","",NA,NA,NA,NA,""
"image-keyboard-response",188,237164,"0.0-3.59-0.59","yaafl1lj5ah4r2a",715,"96.csv","","795","resources/trios/L2T4A1.jpg","37","restless",0.8,0.7,0.1,0.720209353794362,"true"
"image-keyboard-response",189,237566,"0.0-3.59-1.59","yaafl1lj5ah4r2a",715,"96.csv","","null","resources/maskTrios/L2BB.jpg","null","",NA,NA,NA,NA,""
"image-keyboard-response",190,238768,"0.0-3.59-2.59","yaafl1lj5ah4r2a",715,"96.csv","","null","resources/images/coin2.png","null","",NA,NA,NA,NA,""
"image-keyboard-response",191,242090,"0.0-3.60-0.60","yaafl1lj5ah4r2a",715,"96.csv","","3321","resources/trios/L1T1A3.jpg","38","restless",0.7,0.6,0.1,0.00649699857622366,"true"
"image-keyboard-response",192,242494,"0.0-3.60-1.60","yaafl1lj5ah4r2a",715,"96.csv","","null","resources/maskTrios/BT1B.jpg","null","",NA,NA,NA,NA,""
"image-keyboard-response",193,243696,"0.0-3.60-2.60","yaafl1lj5ah4r2a",715,"96.csv","","null","resources/images/coin2.png","null","",NA,NA,NA,NA,""
"image-keyboard-response",194,246461,"0.0-3.61-0.61","yaafl1lj5ah4r2a",715,"96.csv","","2763","resources/trios/L2T1A1.jpg","38","restless",0.7,0.6,0.2,0.174654614692937,"true"
"image-keyboard-response",195,246864,"0.0-3.61-1.61","yaafl1lj5ah4r2a",715,"96.csv","","null","resources/maskTrios/BT1B.jpg","null","",NA,NA,NA,NA,""
"image-keyboard-response",196,248067,"0.0-3.61-2.61","yaafl1lj5ah4r2a",715,"96.csv","","null","resources/images/coin2.png","null","",NA,NA,NA,NA,""
"image-keyboard-response",197,249297,"0.0-3.62-0.62","yaafl1lj5ah4r2a",715,"96.csv","","1228.000000000029","resources/trios/L2T1A3.jpg","37","restless",0.7,0.6,0.2,0.60453258604772,"true"
"image-keyboard-response",198,249699,"0.0-3.62-1.62","yaafl1lj5ah4r2a",715,"96.csv","","null","resources/maskTrios/L2BB.jpg","null","",NA,NA,NA,NA,""
"image-keyboard-response",199,250901,"0.0-3.62-2.62","yaafl1lj5ah4r2a",715,"96.csv","","null","resources/images/coin2.png","null","",NA,NA,NA,NA,""
"image-keyboard-response",200,252186,"0.0-3.63-0.63","yaafl1lj5ah4r2a",715,"96.csv","","1283.000000000029","resources/trios/L1T1A3.jpg","38","restless",0.7,0.6,0.2,0.519194811025563,"true"
"image-keyboard-response",201,252588,"0.0-3.63-1.63","yaafl1lj5ah4r2a",715,"96.csv","","null","resources/maskTrios/BT1B.jpg","null","",NA,NA,NA,NA,""
"image-keyboard-response",202,253790,"0.0-3.63-2.63","yaafl1lj5ah4r2a",715,"96.csv","","null","resources/images/coin2.png","null","",NA,NA,NA,NA,""
"image-keyboard-response",203,254938,"0.0-3.64-0.64","yaafl1lj5ah4r2a",715,"96.csv","","1143.9999999999418","resources/trios/L1T4A1.jpg","38","restless",0.7,0.6,0.3,0.971076976605507,"false"
"image-keyboard-response",204,255340,"0.0-3.64-1.64","yaafl1lj5ah4r2a",715,"96.csv","","null","resources/maskTrios/BT4B.jpg","null","",NA,NA,NA,NA,""
"image-keyboard-response",205,256542,"0.0-3.64-2.64","yaafl1lj5ah4r2a",715,"96.csv","","null","resources/images/fishbone.png","null","",NA,NA,NA,NA,""
"image-keyboard-response",206,257134,"0.0-3.65-0.65","yaafl1lj5ah4r2a",715,"96.csv","","588.0000000000291","resources/trios/L1T1A3.jpg","37","restless",0.7,0.6,0.3,0.290633751635361,"true"
"image-keyboard-response",207,257536,"0.0-3.65-1.65","yaafl1lj5ah4r2a",715,"96.csv","","null","resources/maskTrios/L1BB.jpg","null","",NA,NA,NA,NA,""
"image-keyboard-response",208,258738,"0.0-3.65-2.65","yaafl1lj5ah4r2a",715,"96.csv","","null","resources/images/coin2.png","null","",NA,NA,NA,NA,""
"image-keyboard-response",209,262910,"0.0-3.66-0.66","yaafl1lj5ah4r2a",715,"96.csv","","4170","resources/trios/L2T4A3.jpg","38","restless",0.7,0.6,0.3,0.179438639571122,"true"
"image-keyboard-response",210,263312,"0.0-3.66-1.66","yaafl1lj5ah4r2a",715,"96.csv","","null","resources/maskTrios/BT4B.jpg","null","",NA,NA,NA,NA,""
"image-keyboard-response",211,264514,"0.0-3.66-2.66","yaafl1lj5ah4r2a",715,"96.csv","","null","resources/images/coin2.png","null","",NA,NA,NA,NA,""
"image-keyboard-response",212,265926,"0.0-3.67-0.67","yaafl1lj5ah4r2a",715,"96.csv","","1410.9999999999418","resources/trios/L2T4A3.jpg","37","restless",0.7,0.6,0.3,0.00567759666705181,"true"
"image-keyboard-response",213,266328,"0.0-3.67-1.67","yaafl1lj5ah4r2a",715,"96.csv","","null","resources/maskTrios/L2BB.jpg","null","",NA,NA,NA,NA,""
"image-keyboard-response",214,267530,"0.0-3.67-2.67","yaafl1lj5ah4r2a",715,"96.csv","","null","resources/images/coin2.png","null","",NA,NA,NA,NA,""
"image-keyboard-response",215,270597,"0.0-3.68-0.68","yaafl1lj5ah4r2a",715,"96.csv","","3066","resources/trios/L2T4A1.jpg","38","restless",0.7,0.6,0.3,0.650213618738796,"false"
"image-keyboard-response",216,271000,"0.0-3.68-1.68","yaafl1lj5ah4r2a",715,"96.csv","","null","resources/maskTrios/BT4B.jpg","null","",NA,NA,NA,NA,""
"image-keyboard-response",217,272203,"0.0-3.68-2.68","yaafl1lj5ah4r2a",715,"96.csv","","null","resources/images/fishbone.png","null","",NA,NA,NA,NA,""
"image-keyboard-response",218,272368,"0.0-3.69-0.69","yaafl1lj5ah4r2a",715,"96.csv","","164","resources/trios/L2T4A3.jpg","37","restless",0.7,0.6,0.3,0.851616704220052,"false"
"image-keyboard-response",219,272771,"0.0-3.69-1.69","yaafl1lj5ah4r2a",715,"96.csv","","null","resources/maskTrios/L2BB.jpg","null","",NA,NA,NA,NA,""
"image-keyboard-response",220,273973,"0.0-3.69-2.69","yaafl1lj5ah4r2a",715,"96.csv","","null","resources/images/fishbone.png","null","",NA,NA,NA,NA,""
"image-keyboard-response",221,275204,"0.0-3.70-0.70","yaafl1lj5ah4r2a",715,"96.csv","","1230","resources/trios/L1T4A1.jpg","38","restless",0.7,0.6,0.4,0.240777326424306,"true"
"image-keyboard-response",222,275607,"0.0-3.70-1.70","yaafl1lj5ah4r2a",715,"96.csv","","null","resources/maskTrios/BT4B.jpg","null","",NA,NA,NA,NA,""
"image-keyboard-response",223,276809,"0.0-3.70-2.70","yaafl1lj5ah4r2a",715,"96.csv","","null","resources/images/coin2.png","null","",NA,NA,NA,NA,""
"image-keyboard-response",224,278510,"0.0-3.71-0.71","yaafl1lj5ah4r2a",715,"96.csv","","1699","resources/trios/L1T1A1.jpg","38","restless",0.7,0.6,0.4,0.407446220400967,"true"
"image-keyboard-response",225,278911,"0.0-3.71-1.71","yaafl1lj5ah4r2a",715,"96.csv","","null","resources/maskTrios/BT1B.jpg","null","",NA,NA,NA,NA,""
"image-keyboard-response",226,280113,"0.0-3.71-2.71","yaafl1lj5ah4r2a",715,"96.csv","","null","resources/images/coin2.png","null","",NA,NA,NA,NA,""
"image-keyboard-response",227,284275,"0.0-3.72-0.72","yaafl1lj5ah4r2a",715,"96.csv","","4160","resources/trios/L1T4A1.jpg","37","restless",0.6,0.6,0.4,0.716584161537975,"false"
"image-keyboard-response",228,284679,"0.0-3.72-1.72","yaafl1lj5ah4r2a",715,"96.csv","","null","resources/maskTrios/L1BB.jpg","null","",NA,NA,NA,NA,""
"image-keyboard-response",229,285881,"0.0-3.72-2.72","yaafl1lj5ah4r2a",715,"96.csv","","null","resources/images/fishbone.png","null","",NA,NA,NA,NA,""
"image-keyboard-response",230,286279,"0.0-3.73-0.73","yaafl1lj5ah4r2a",715,"96.csv","","397","resources/trios/L1T1A1.jpg","38","restless",0.5,0.6,0.5,0.133388815533562,"true"
"image-keyboard-response",231,286682,"0.0-3.73-1.73","yaafl1lj5ah4r2a",715,"96.csv","","null","resources/maskTrios/BT1B.jpg","null","",NA,NA,NA,NA,""
"image-keyboard-response",232,287884,"0.0-3.73-2.73","yaafl1lj5ah4r2a",715,"96.csv","","null","resources/images/coin2.png","null","",NA,NA,NA,NA,""
"image-keyboard-response",233,289809,"0.0-3.74-0.74","yaafl1lj5ah4r2a",715,"96.csv","","1922","resources/trios/L1T1A1.jpg","38","restless",0.4,0.6,0.6,0.486599974600939,"true"
"image-keyboard-response",234,290212,"0.0-3.74-1.74","yaafl1lj5ah4r2a",715,"96.csv","","null","resources/maskTrios/BT1B.jpg","null","",NA,NA,NA,NA,""
"image-keyboard-response",235,291413,"0.0-3.74-2.74","yaafl1lj5ah4r2a",715,"96.csv","","null","resources/images/coin2.png","null","",NA,NA,NA,NA,""
"image-keyboard-response",236,292629,"0.0-3.75-0.75","yaafl1lj5ah4r2a",715,"96.csv","","1216","resources/trios/L1T4A3.jpg","38","restless",0.4,0.6,0.6,0.282152028588717,"true"
"image-keyboard-response",237,293032,"0.0-3.75-1.75","yaafl1lj5ah4r2a",715,"96.csv","","null","resources/maskTrios/BT4B.jpg","null","",NA,NA,NA,NA,""
"image-keyboard-response",238,294234,"0.0-3.75-2.75","yaafl1lj5ah4r2a",715,"96.csv","","null","resources/images/coin2.png","null","",NA,NA,NA,NA,""
"image-keyboard-response",239,295389,"0.0-3.76-0.76","yaafl1lj5ah4r2a",715,"96.csv","","1154","resources/trios/L1T4A3.jpg","38","restless",0.5,0.6,0.6,0.582239662892856,"true"
"image-keyboard-response",240,295791,"0.0-3.76-1.76","yaafl1lj5ah4r2a",715,"96.csv","","null","resources/maskTrios/BT4B.jpg","null","",NA,NA,NA,NA,""
"image-keyboard-response",241,296994,"0.0-3.76-2.76","yaafl1lj5ah4r2a",715,"96.csv","","null","resources/images/coin2.png","null","",NA,NA,NA,NA,""
"image-keyboard-response",242,297857,"0.0-3.77-0.77","yaafl1lj5ah4r2a",715,"96.csv","","862","resources/trios/L1T1A1.jpg","38","restless",0.5,0.6,0.6,0.0293330822185849,"true"
"image-keyboard-response",243,298259,"0.0-3.77-1.77","yaafl1lj5ah4r2a",715,"96.csv","","null","resources/maskTrios/BT1B.jpg","null","",NA,NA,NA,NA,""
"image-keyboard-response",244,299461,"0.0-3.77-2.77","yaafl1lj5ah4r2a",715,"96.csv","","null","resources/images/coin2.png","null","",NA,NA,NA,NA,""
"image-keyboard-response",245,301101,"0.0-3.78-0.78","yaafl1lj5ah4r2a",715,"96.csv","","1639","resources/trios/L1T1A1.jpg","38","restless",0.5,0.6,0.6,0.772186782495897,"false"
"image-keyboard-response",246,301503,"0.0-3.78-1.78","yaafl1lj5ah4r2a",715,"96.csv","","null","resources/maskTrios/BT1B.jpg","null","",NA,NA,NA,NA,""
"image-keyboard-response",247,302706,"0.0-3.78-2.78","yaafl1lj5ah4r2a",715,"96.csv","","null","resources/images/fishbone.png","null","",NA,NA,NA,NA,""
"image-keyboard-response",248,302991,"0.0-3.79-0.79","yaafl1lj5ah4r2a",715,"96.csv","","284","resources/trios/L2T1A1.jpg","37","restless",0.5,0.6,0.6,0.380189662681421,"true"
"image-keyboard-response",249,303393,"0.0-3.79-1.79","yaafl1lj5ah4r2a",715,"96.csv","","null","resources/maskTrios/L2BB.jpg","null","",NA,NA,NA,NA,""
"image-keyboard-response",250,304595,"0.0-3.79-2.79","yaafl1lj5ah4r2a",715,"96.csv","","null","resources/images/coin2.png","null","",NA,NA,NA,NA,""
"image-keyboard-response",251,306744,"0.0-3.80-0.80","yaafl1lj5ah4r2a",715,"96.csv","","2148","resources/trios/L2T1A3.jpg","37","restless",0.5,0.5,0.6,0.0436558582655189,"true"
"image-keyboard-response",252,307146,"0.0-3.80-1.80","yaafl1lj5ah4r2a",715,"96.csv","","null","resources/maskTrios/L2BB.jpg","null","",NA,NA,NA,NA,""
"image-keyboard-response",253,308348,"0.0-3.80-2.80","yaafl1lj5ah4r2a",715,"96.csv","","null","resources/images/coin2.png","null","",NA,NA,NA,NA,""
"image-keyboard-response",254,309773,"0.0-3.81-0.81","yaafl1lj5ah4r2a",715,"96.csv","","1423","resources/trios/L2T1A3.jpg","38","restless",0.5,0.5,0.5,0.828796161864424,"false"
"image-keyboard-response",255,310175,"0.0-3.81-1.81","yaafl1lj5ah4r2a",715,"96.csv","","null","resources/maskTrios/BT1B.jpg","null","",NA,NA,NA,NA,""
"image-keyboard-response",256,311377,"0.0-3.81-2.81","yaafl1lj5ah4r2a",715,"96.csv","","null","resources/images/fishbone.png","null","",NA,NA,NA,NA,""
"image-keyboard-response",257,311793,"0.0-3.82-0.82","yaafl1lj5ah4r2a",715,"96.csv","","415","resources/trios/L1T1A1.jpg","37","restless",0.5,0.5,0.5,0.75796934876909,"false"
"image-keyboard-response",258,312195,"0.0-3.82-1.82","yaafl1lj5ah4r2a",715,"96.csv","","null","resources/maskTrios/L1BB.jpg","null","",NA,NA,NA,NA,""
"image-keyboard-response",259,313397,"0.0-3.82-2.82","yaafl1lj5ah4r2a",715,"96.csv","","null","resources/images/fishbone.png","null","",NA,NA,NA,NA,""
"image-keyboard-response",260,315032,"0.0-3.83-0.83","yaafl1lj5ah4r2a",715,"96.csv","","1634","resources/trios/L2T1A1.jpg","38","restless",0.5,0.4,0.5,0.458145783860196,"false"
"image-keyboard-response",261,315434,"0.0-3.83-1.83","yaafl1lj5ah4r2a",715,"96.csv","","null","resources/maskTrios/BT1B.jpg","null","",NA,NA,NA,NA,""
"image-keyboard-response",262,316636,"0.0-3.83-2.83","yaafl1lj5ah4r2a",715,"96.csv","","null","resources/images/fishbone.png","null","",NA,NA,NA,NA,""
"image-keyboard-response",263,317104,"0.0-3.84-0.84","yaafl1lj5ah4r2a",715,"96.csv","","465","resources/trios/L2T1A3.jpg","37","restless",0.5,0.4,0.5,0.0483378510216099,"true"
"image-keyboard-response",264,317506,"0.0-3.84-1.84","yaafl1lj5ah4r2a",715,"96.csv","","null","resources/maskTrios/L2BB.jpg","null","",NA,NA,NA,NA,""
"image-keyboard-response",265,318708,"0.0-3.84-2.84","yaafl1lj5ah4r2a",715,"96.csv","","null","resources/images/coin2.png","null","",NA,NA,NA,NA,""
"image-keyboard-response",266,319631,"0.0-3.85-0.85","yaafl1lj5ah4r2a",715,"96.csv","","922","resources/trios/L2T1A1.jpg","37","restless",0.5,0.4,0.5,0.303522387942428,"true"
"image-keyboard-response",267,320034,"0.0-3.85-1.85","yaafl1lj5ah4r2a",715,"96.csv","","null","resources/maskTrios/L2BB.jpg","null","",NA,NA,NA,NA,""
"image-keyboard-response",268,321237,"0.0-3.85-2.85","yaafl1lj5ah4r2a",715,"96.csv","","null","resources/images/coin2.png","null","",NA,NA,NA,NA,""
"image-keyboard-response",269,322011,"0.0-3.86-0.86","yaafl1lj5ah4r2a",715,"96.csv","","774","resources/trios/L1T1A1.jpg","38","restless",0.5,0.4,0.5,0.0286358798327706,"true"
"image-keyboard-response",270,322413,"0.0-3.86-1.86","yaafl1lj5ah4r2a",715,"96.csv","","null","resources/maskTrios/BT1B.jpg","null","",NA,NA,NA,NA,""
"image-keyboard-response",271,323616,"0.0-3.86-2.86","yaafl1lj5ah4r2a",715,"96.csv","","null","resources/images/coin2.png","null","",NA,NA,NA,NA,""
"image-keyboard-response",272,325460,"0.0-3.87-0.87","yaafl1lj5ah4r2a",715,"96.csv","","1843","resources/trios/L2T4A3.jpg","37","restless",0.5,0.3,0.5,0.904773726857518,"false"
"image-keyboard-response",273,325862,"0.0-3.87-1.87","yaafl1lj5ah4r2a",715,"96.csv","","null","resources/maskTrios/L2BB.jpg","null","",NA,NA,NA,NA,""
"image-keyboard-response",274,327065,"0.0-3.87-2.87","yaafl1lj5ah4r2a",715,"96.csv","","null","resources/images/fishbone.png","null","",NA,NA,NA,NA,""
"image-keyboard-response",275,327607,"0.0-3.88-0.88","yaafl1lj5ah4r2a",715,"96.csv","","540","resources/trios/L1T4A1.jpg","38","restless",0.5,0.3,0.6,0.564610283458134,"false"
"image-keyboard-response",276,328009,"0.0-3.88-1.88","yaafl1lj5ah4r2a",715,"96.csv","","null","resources/maskTrios/BT4B.jpg","null","",NA,NA,NA,NA,""
"image-keyboard-response",277,329211,"0.0-3.88-2.88","yaafl1lj5ah4r2a",715,"96.csv","","null","resources/images/fishbone.png","null","",NA,NA,NA,NA,""
"image-keyboard-response",278,330018,"0.0-3.89-0.89","yaafl1lj5ah4r2a",715,"96.csv","","806","resources/trios/L1T4A3.jpg","37","restless",0.5,0.3,0.6,0.203100504132889,"true"
"image-keyboard-response",279,330421,"0.0-3.89-1.89","yaafl1lj5ah4r2a",715,"96.csv","","null","resources/maskTrios/L1BB.jpg","null","",NA,NA,NA,NA,""
"image-keyboard-response",280,331623,"0.0-3.89-2.89","yaafl1lj5ah4r2a",715,"96.csv","","null","resources/images/coin2.png","null","",NA,NA,NA,NA,""
"image-keyboard-response",281,333248,"0.0-3.90-0.90","yaafl1lj5ah4r2a",715,"96.csv","","1622","resources/trios/L1T4A3.jpg","38","restless",0.5,0.3,0.6,0.383243480089262,"false"
"image-keyboard-response",282,333651,"0.0-3.90-1.90","yaafl1lj5ah4r2a",715,"96.csv","","null","resources/maskTrios/BT4B.jpg","null","",NA,NA,NA,NA,""
"image-keyboard-response",283,334853,"0.0-3.90-2.90","yaafl1lj5ah4r2a",715,"96.csv","","null","resources/images/fishbone.png","null","",NA,NA,NA,NA,""
"image-keyboard-response",284,335191,"0.0-3.91-0.91","yaafl1lj5ah4r2a",715,"96.csv","","337","resources/trios/L2T1A1.jpg","37","restless",0.5,0.3,0.6,0.0718807710497561,"true"
"image-keyboard-response",285,335593,"0.0-3.91-1.91","yaafl1lj5ah4r2a",715,"96.csv","","null","resources/maskTrios/L2BB.jpg","null","",NA,NA,NA,NA,""
"image-keyboard-response",286,336796,"0.0-3.91-2.91","yaafl1lj5ah4r2a",715,"96.csv","","null","resources/images/coin2.png","null","",NA,NA,NA,NA,""
"image-keyboard-response",287,337753,"0.0-3.92-0.92","yaafl1lj5ah4r2a",715,"96.csv","","956","resources/trios/L2T4A3.jpg","37","restless",0.5,0.3,0.6,0.0384275408355899,"true"
"image-keyboard-response",288,338156,"0.0-3.92-1.92","yaafl1lj5ah4r2a",715,"96.csv","","null","resources/maskTrios/L2BB.jpg","null","",NA,NA,NA,NA,""
"image-keyboard-response",289,339358,"0.0-3.92-2.92","yaafl1lj5ah4r2a",715,"96.csv","","null","resources/images/coin2.png","null","",NA,NA,NA,NA,""
"image-keyboard-response",290,340205,"0.0-3.93-0.93","yaafl1lj5ah4r2a",715,"96.csv","","845","resources/trios/L1T1A3.jpg","38","restless",0.5,0.2,0.6,0.820417641932174,"false"
"image-keyboard-response",291,340607,"0.0-3.93-1.93","yaafl1lj5ah4r2a",715,"96.csv","","null","resources/maskTrios/BT1B.jpg","null","",NA,NA,NA,NA,""
"image-keyboard-response",292,341809,"0.0-3.93-2.93","yaafl1lj5ah4r2a",715,"96.csv","","null","resources/images/fishbone.png","null","",NA,NA,NA,NA,""
"image-keyboard-response",293,343003,"0.0-3.94-0.94","yaafl1lj5ah4r2a",715,"96.csv","","1193","resources/trios/L1T4A3.jpg","37","restless",0.5,0.2,0.6,0.270996476155199,"true"
"image-keyboard-response",294,343406,"0.0-3.94-1.94","yaafl1lj5ah4r2a",715,"96.csv","","null","resources/maskTrios/L1BB.jpg","null","",NA,NA,NA,NA,""
"image-keyboard-response",295,344610,"0.0-3.94-2.94","yaafl1lj5ah4r2a",715,"96.csv","","null","resources/images/coin2.png","null","",NA,NA,NA,NA,""
"image-keyboard-response",296,348900,"0.0-3.95-0.95","yaafl1lj5ah4r2a",715,"96.csv","","4288","resources/trios/L1T4A1.jpg","38","restless",0.5,0.2,0.6,0.623537334988887,"false"
"image-keyboard-response",297,349303,"0.0-3.95-1.95","yaafl1lj5ah4r2a",715,"96.csv","","null","resources/maskTrios/BT4B.jpg","null","",NA,NA,NA,NA,""
"image-keyboard-response",298,350506,"0.0-3.95-2.95","yaafl1lj5ah4r2a",715,"96.csv","","null","resources/images/fishbone.png","null","",NA,NA,NA,NA,""
"image-keyboard-response",299,350850,"0.0-3.96-0.96","yaafl1lj5ah4r2a",715,"96.csv","","343","resources/trios/L1T4A3.jpg","37","restless",0.5,0.2,0.6,0.723308456138111,"false"
"image-keyboard-response",300,351252,"0.0-3.96-1.96","yaafl1lj5ah4r2a",715,"96.csv","","null","resources/maskTrios/L1BB.jpg","null","",NA,NA,NA,NA,""
"image-keyboard-response",301,352454,"0.0-3.96-2.96","yaafl1lj5ah4r2a",715,"96.csv","","null","resources/images/fishbone.png","null","",NA,NA,NA,NA,""
"image-keyboard-response",302,353243,"0.0-3.97-0.97","yaafl1lj5ah4r2a",715,"96.csv","","787","resources/trios/L1T1A3.jpg","38","restless",0.5,0.2,0.7,0.648286533713209,"false"
"image-keyboard-response",303,353645,"0.0-3.97-1.97","yaafl1lj5ah4r2a",715,"96.csv","","null","resources/maskTrios/BT1B.jpg","null","",NA,NA,NA,NA,""
"image-keyboard-response",304,354847,"0.0-3.97-2.97","yaafl1lj5ah4r2a",715,"96.csv","","null","resources/images/fishbone.png","null","",NA,NA,NA,NA,""
"image-keyboard-response",305,356070,"0.0-3.98-0.98","yaafl1lj5ah4r2a",715,"96.csv","","1221","resources/trios/L1T1A1.jpg","37","restless",0.5,0.2,0.7,0.336786139205856,"true"
"image-keyboard-response",306,356472,"0.0-3.98-1.98","yaafl1lj5ah4r2a",715,"96.csv","","null","resources/maskTrios/L1BB.jpg","null","",NA,NA,NA,NA,""
"image-keyboard-response",307,357675,"0.0-3.98-2.98","yaafl1lj5ah4r2a",715,"96.csv","","null","resources/images/coin2.png","null","",NA,NA,NA,NA,""
"image-keyboard-response",308,359931,"0.0-3.99-0.99","yaafl1lj5ah4r2a",715,"96.csv","","2255","resources/trios/L1T1A3.jpg","38","restless",0.5,0.2,0.7,0.862058629967354,"false"
"image-keyboard-response",309,360333,"0.0-3.99-1.99","yaafl1lj5ah4r2a",715,"96.csv","","null","resources/maskTrios/BT1B.jpg","null","",NA,NA,NA,NA,""
"image-keyboard-response",310,361535,"0.0-3.99-2.99","yaafl1lj5ah4r2a",715,"96.csv","","null","resources/images/fishbone.png","null","",NA,NA,NA,NA,""
"image-keyboard-response",311,362052,"0.0-3.100-0.100","yaafl1lj5ah4r2a",715,"96.csv","","515","resources/trios/L1T1A3.jpg","37","restless",0.5,0.2,0.8,0.640850032071207,"false"
"image-keyboard-response",312,362454,"0.0-3.100-1.100","yaafl1lj5ah4r2a",715,"96.csv","","null","resources/maskTrios/L1BB.jpg","null","",NA,NA,NA,NA,""
"image-keyboard-response",313,363656,"0.0-3.100-2.100","yaafl1lj5ah4r2a",715,"96.csv","","null","resources/images/fishbone.png","null","",NA,NA,NA,NA,""
"image-keyboard-response",314,363956,"0.0-3.101-0.101","yaafl1lj5ah4r2a",715,"96.csv","","298","resources/trios/L2T1A3.jpg","39","restless",0.5,0.2,0.8,0.828250149391773,"false"
"image-keyboard-response",315,364358,"0.0-3.101-1.101","yaafl1lj5ah4r2a",715,"96.csv","","null","resources/maskTrios/BBA3.jpg","null","",NA,NA,NA,NA,""
"image-keyboard-response",316,365560,"0.0-3.101-2.101","yaafl1lj5ah4r2a",715,"96.csv","","null","resources/images/fishbone.png","null","",NA,NA,NA,NA,""
"image-keyboard-response",317,366299,"0.0-3.102-0.102","yaafl1lj5ah4r2a",715,"96.csv","","735","resources/trios/L1T1A1.jpg","38","restless",0.5,0.2,0.8,0.405622611741197,"false"
"image-keyboard-response",318,366701,"0.0-3.102-1.102","yaafl1lj5ah4r2a",715,"96.csv","","null","resources/maskTrios/BT1B.jpg","null","",NA,NA,NA,NA,""
"image-keyboard-response",319,367904,"0.0-3.102-2.102","yaafl1lj5ah4r2a",715,"96.csv","","null","resources/images/fishbone.png","null","",NA,NA,NA,NA,""
"image-keyboard-response",320,368617,"0.0-3.103-0.103","yaafl1lj5ah4r2a",715,"96.csv","","711.9999999999418","resources/trios/L2T4A3.jpg","37","restless",0.5,0.3,0.8,0.946951654027601,"false"
"image-keyboard-response",321,369019,"0.0-3.103-1.103","yaafl1lj5ah4r2a",715,"96.csv","","null","resources/maskTrios/L2BB.jpg","null","",NA,NA,NA,NA,""
"image-keyboard-response",322,370221,"0.0-3.103-2.103","yaafl1lj5ah4r2a",715,"96.csv","","null","resources/images/fishbone.png","null","",NA,NA,NA,NA,""
"image-keyboard-response",323,370959,"0.0-3.104-0.104","yaafl1lj5ah4r2a",715,"96.csv","","737","resources/trios/L1T4A3.jpg","38","restless",0.5,0.3,0.9,0.830517977838041,"false"
"image-keyboard-response",324,371361,"0.0-3.104-1.104","yaafl1lj5ah4r2a",715,"96.csv","","null","resources/maskTrios/BT4B.jpg","null","",NA,NA,NA,NA,""
"image-keyboard-response",325,372563,"0.0-3.104-2.104","yaafl1lj5ah4r2a",715,"96.csv","","null","resources/images/fishbone.png","null","",NA,NA,NA,NA,""
"image-keyboard-response",326,373508,"0.0-3.105-0.105","yaafl1lj5ah4r2a",715,"96.csv","","944","resources/trios/L1T1A3.jpg","37","restless",0.5,0.3,0.9,0.691052904014643,"false"
"image-keyboard-response",327,373910,"0.0-3.105-1.105","yaafl1lj5ah4r2a",715,"96.csv","","null","resources/maskTrios/L1BB.jpg","null","",NA,NA,NA,NA,""
"image-keyboard-response",328,375112,"0.0-3.105-2.105","yaafl1lj5ah4r2a",715,"96.csv","","null","resources/images/fishbone.png","null","",NA,NA,NA,NA,""
"image-keyboard-response",329,375473,"0.0-3.106-0.106","yaafl1lj5ah4r2a",715,"96.csv","","360","resources/trios/L1T1A3.jpg","39","restless",0.5,0.3,0.9,0.4977197615178,"true"
"image-keyboard-response",330,375875,"0.0-3.106-1.106","yaafl1lj5ah4r2a",715,"96.csv","","null","resources/maskTrios/BBA3.jpg","null","",NA,NA,NA,NA,""
"image-keyboard-response",331,377077,"0.0-3.106-2.106","yaafl1lj5ah4r2a",715,"96.csv","","null","resources/images/coin2.png","null","",NA,NA,NA,NA,""
"image-keyboard-response",332,378599,"0.0-3.107-0.107","yaafl1lj5ah4r2a",715,"96.csv","","1520.9999999999418","resources/trios/L2T1A3.jpg","37","restless",0.5,0.3,0.9,0.666711597869726,"false"
"image-keyboard-response",333,379003,"0.0-3.107-1.107","yaafl1lj5ah4r2a",715,"96.csv","","null","resources/maskTrios/L2BB.jpg","null","",NA,NA,NA,NA,""
"image-keyboard-response",334,380205,"0.0-3.107-2.107","yaafl1lj5ah4r2a",715,"96.csv","","null","resources/images/fishbone.png","null","",NA,NA,NA,NA,""
"image-keyboard-response",335,380797,"0.0-3.108-0.108","yaafl1lj5ah4r2a",715,"96.csv","","591","resources/trios/L2T1A3.jpg","39","restless",0.5,0.3,0.9,0.826205985508751,"true"
"image-keyboard-response",336,381199,"0.0-3.108-1.108","yaafl1lj5ah4r2a",715,"96.csv","","null","resources/maskTrios/BBA3.jpg","null","",NA,NA,NA,NA,""
"image-keyboard-response",337,382402,"0.0-3.108-2.108","yaafl1lj5ah4r2a",715,"96.csv","","null","resources/images/coin2.png","null","",NA,NA,NA,NA,""
"image-keyboard-response",338,383082,"0.0-3.109-0.109","yaafl1lj5ah4r2a",715,"96.csv","","679","resources/trios/L2T1A3.jpg","38","restless",0.5,0.3,0.9,0.586176345978336,"false"
"image-keyboard-response",339,383485,"0.0-3.109-1.109","yaafl1lj5ah4r2a",715,"96.csv","","null","resources/maskTrios/BT1B.jpg","null","",NA,NA,NA,NA,""
"image-keyboard-response",340,384687,"0.0-3.109-2.109","yaafl1lj5ah4r2a",715,"96.csv","","null","resources/images/fishbone.png","null","",NA,NA,NA,NA,""
"image-keyboard-response",341,385293,"0.0-3.110-0.110","yaafl1lj5ah4r2a",715,"96.csv","","603","resources/trios/L2T1A1.jpg","39","restless",0.5,0.3,0.9,0.862011310417584,"true"
"image-keyboard-response",342,385696,"0.0-3.110-1.110","yaafl1lj5ah4r2a",715,"96.csv","","null","resources/maskTrios/BBA1.jpg","null","",NA,NA,NA,NA,""
"image-keyboard-response",343,386898,"0.0-3.110-2.110","yaafl1lj5ah4r2a",715,"96.csv","","null","resources/images/coin2.png","null","",NA,NA,NA,NA,""
"image-keyboard-response",344,388660,"0.0-3.111-0.111","yaafl1lj5ah4r2a",715,"96.csv","","1760","resources/trios/L2T1A3.jpg","37","restless",0.5,0.3,0.9,0.917942636435081,"false"
"image-keyboard-response",345,389061,"0.0-3.111-1.111","yaafl1lj5ah4r2a",715,"96.csv","","null","resources/maskTrios/L2BB.jpg","null","",NA,NA,NA,NA,""
"image-keyboard-response",346,390263,"0.0-3.111-2.111","yaafl1lj5ah4r2a",715,"96.csv","","null","resources/images/fishbone.png","null","",NA,NA,NA,NA,""
"image-keyboard-response",347,390344,"0.0-3.112-0.112","yaafl1lj5ah4r2a",715,"96.csv","","81","resources/trios/L1T1A3.jpg","39","restless",0.5,0.3,0.9,0.0859179631687921,"true"
"image-keyboard-response",348,390747,"0.0-3.112-1.112","yaafl1lj5ah4r2a",715,"96.csv","","null","resources/maskTrios/BBA3.jpg","null","",NA,NA,NA,NA,""
"image-keyboard-response",349,391949,"0.0-3.112-2.112","yaafl1lj5ah4r2a",715,"96.csv","","null","resources/images/coin2.png","null","",NA,NA,NA,NA,""
"image-keyboard-response",350,392242,"0.0-3.113-0.113","yaafl1lj5ah4r2a",715,"96.csv","","293","resources/trios/L2T4A3.jpg","39","restless",0.6,0.3,0.9,0.326436932616407,"true"
"image-keyboard-response",351,392645,"0.0-3.113-1.113","yaafl1lj5ah4r2a",715,"96.csv","","null","resources/maskTrios/BBA3.jpg","null","",NA,NA,NA,NA,""
"image-keyboard-response",352,393847,"0.0-3.113-2.113","yaafl1lj5ah4r2a",715,"96.csv","","null","resources/images/coin2.png","null","",NA,NA,NA,NA,""
"image-keyboard-response",353,394124,"0.0-3.114-0.114","yaafl1lj5ah4r2a",715,"96.csv","","277","resources/trios/L2T1A3.jpg","39","restless",0.6,0.3,0.9,0.466766306122418,"true"
"image-keyboard-response",354,394527,"0.0-3.114-1.114","yaafl1lj5ah4r2a",715,"96.csv","","null","resources/maskTrios/BBA3.jpg","null","",NA,NA,NA,NA,""
"image-keyboard-response",355,395729,"0.0-3.114-2.114","yaafl1lj5ah4r2a",715,"96.csv","","null","resources/images/coin2.png","null","",NA,NA,NA,NA,""
"image-keyboard-response",356,396042,"0.0-3.115-0.115","yaafl1lj5ah4r2a",715,"96.csv","","313.0000000000582","resources/trios/L2T1A3.jpg","39","restless",0.6,0.3,0.9,0.527060417360795,"true"
"image-keyboard-response",357,396445,"0.0-3.115-1.115","yaafl1lj5ah4r2a",715,"96.csv","","null","resources/maskTrios/BBA3.jpg","null","",NA,NA,NA,NA,""
"image-keyboard-response",358,397649,"0.0-3.115-2.115","yaafl1lj5ah4r2a",715,"96.csv","","null","resources/images/coin2.png","null","",NA,NA,NA,NA,""
"image-keyboard-response",359,398015,"0.0-3.116-0.116","yaafl1lj5ah4r2a",715,"96.csv","","365","resources/trios/L2T1A3.jpg","39","restless",0.6,0.3,0.9,0.514361304869137,"true"
"image-keyboard-response",360,398417,"0.0-3.116-1.116","yaafl1lj5ah4r2a",715,"96.csv","","null","resources/maskTrios/BBA3.jpg","null","",NA,NA,NA,NA,""
"image-keyboard-response",361,399619,"0.0-3.116-2.116","yaafl1lj5ah4r2a",715,"96.csv","","null","resources/images/coin2.png","null","",NA,NA,NA,NA,""
"image-keyboard-response",362,399684,"0.0-3.117-0.117","yaafl1lj5ah4r2a",715,"96.csv","","61","resources/trios/L2T1A3.jpg","39","restless",0.5,0.3,0.9,0.270932812462063,"true"
"image-keyboard-response",363,400086,"0.0-3.117-1.117","yaafl1lj5ah4r2a",715,"96.csv","","null","resources/maskTrios/BBA3.jpg","null","",NA,NA,NA,NA,""
"image-keyboard-response",364,401288,"0.0-3.117-2.117","yaafl1lj5ah4r2a",715,"96.csv","","null","resources/images/coin2.png","null","",NA,NA,NA,NA,""
"image-keyboard-response",365,401564,"0.0-3.118-0.118","yaafl1lj5ah4r2a",715,"96.csv","","274","resources/trios/L2T4A3.jpg","39","restless",0.5,0.3,0.9,0.465213930978513,"true"
"image-keyboard-response",366,401965,"0.0-3.118-1.118","yaafl1lj5ah4r2a",715,"96.csv","","null","resources/maskTrios/BBA3.jpg","null","",NA,NA,NA,NA,""
"image-keyboard-response",367,403167,"0.0-3.118-2.118","yaafl1lj5ah4r2a",715,"96.csv","","null","resources/images/coin2.png","null","",NA,NA,NA,NA,""
"image-keyboard-response",368,403417,"0.0-3.119-0.119","yaafl1lj5ah4r2a",715,"96.csv","","248.9999999999418","resources/trios/L2T1A1.jpg","39","restless",0.5,0.3,0.9,0.0626254482766725,"true"
"image-keyboard-response",369,403820,"0.0-3.119-1.119","yaafl1lj5ah4r2a",715,"96.csv","","null","resources/maskTrios/BBA1.jpg","null","",NA,NA,NA,NA,""
"image-keyboard-response",370,405022,"0.0-3.119-2.119","yaafl1lj5ah4r2a",715,"96.csv","","null","resources/images/coin2.png","null","",NA,NA,NA,NA,""
"image-keyboard-response",371,405333,"0.0-3.120-0.120","yaafl1lj5ah4r2a",715,"96.csv","","309","resources/trios/L1T4A1.jpg","39","restless",0.5,0.3,0.9,0.657495607075985,"true"
"image-keyboard-response",372,405735,"0.0-3.120-1.120","yaafl1lj5ah4r2a",715,"96.csv","","null","resources/maskTrios/BBA1.jpg","null","",NA,NA,NA,NA,""
"image-keyboard-response",373,406939,"0.0-3.120-2.120","yaafl1lj5ah4r2a",715,"96.csv","","null","resources/images/coin2.png","null","",NA,NA,NA,NA,""
"image-keyboard-response",374,407053,"0.0-3.121-0.121","yaafl1lj5ah4r2a",715,"96.csv","","113","resources/trios/L1T1A3.jpg","39","restless",0.5,0.3,0.9,0.683240840044462,"true"
"image-keyboard-response",375,407455,"0.0-3.121-1.121","yaafl1lj5ah4r2a",715,"96.csv","","null","resources/maskTrios/BBA3.jpg","null","",NA,NA,NA,NA,""
"image-keyboard-response",376,408657,"0.0-3.121-2.121","yaafl1lj5ah4r2a",715,"96.csv","","null","resources/images/coin2.png","null","",NA,NA,NA,NA,""
"image-keyboard-response",377,408767,"0.0-3.122-0.122","yaafl1lj5ah4r2a",715,"96.csv","","106","resources/trios/L1T4A1.jpg","39","restless",0.5,0.3,0.9,0.13916201126667,"true"
"image-keyboard-response",378,409169,"0.0-3.122-1.122","yaafl1lj5ah4r2a",715,"96.csv","","null","resources/maskTrios/BBA1.jpg","null","",NA,NA,NA,NA,""
"image-keyboard-response",379,410371,"0.0-3.122-2.122","yaafl1lj5ah4r2a",715,"96.csv","","null","resources/images/coin2.png","null","",NA,NA,NA,NA,""
"image-keyboard-response",380,410932,"0.0-3.123-0.123","yaafl1lj5ah4r2a",715,"96.csv","","560","resources/trios/L1T4A1.jpg","39","restless",0.5,0.4,0.9,0.940595701572937,"false"
"image-keyboard-response",381,411334,"0.0-3.123-1.123","yaafl1lj5ah4r2a",715,"96.csv","","null","resources/maskTrios/BBA1.jpg","null","",NA,NA,NA,NA,""
"image-keyboard-response",382,412537,"0.0-3.123-2.123","yaafl1lj5ah4r2a",715,"96.csv","","null","resources/images/fishbone.png","null","",NA,NA,NA,NA,""
"image-keyboard-response",383,413048,"0.0-3.124-0.124","yaafl1lj5ah4r2a",715,"96.csv","","510","resources/trios/L2T1A3.jpg","38","restless",0.4,0.4,0.9,0.948268133994943,"false"
"image-keyboard-response",384,413450,"0.0-3.124-1.124","yaafl1lj5ah4r2a",715,"96.csv","","null","resources/maskTrios/BT1B.jpg","null","",NA,NA,NA,NA,""
"image-keyboard-response",385,414652,"0.0-3.124-2.124","yaafl1lj5ah4r2a",715,"96.csv","","null","resources/images/fishbone.png","null","",NA,NA,NA,NA,""
"image-keyboard-response",386,414910,"0.0-3.125-0.125","yaafl1lj5ah4r2a",715,"96.csv","","256","resources/trios/L2T1A1.jpg","37","restless",0.5,0.4,0.9,0.334427506151348,"true"
"image-keyboard-response",387,415312,"0.0-3.125-1.125","yaafl1lj5ah4r2a",715,"96.csv","","null","resources/maskTrios/L2BB.jpg","null","",NA,NA,NA,NA,""
"image-keyboard-response",388,416514,"0.0-3.125-2.125","yaafl1lj5ah4r2a",715,"96.csv","","null","resources/images/coin2.png","null","",NA,NA,NA,NA,""
"image-keyboard-response",389,417812,"0.0-3.126-0.126","yaafl1lj5ah4r2a",715,"96.csv","","1296","resources/trios/L1T4A3.jpg","38","restless",0.4,0.4,0.9,0.532762652452595,"false"
"image-keyboard-response",390,418215,"0.0-3.126-1.126","yaafl1lj5ah4r2a",715,"96.csv","","null","resources/maskTrios/BT4B.jpg","null","",NA,NA,NA,NA,""
"image-keyboard-response",391,419418,"0.0-3.126-2.126","yaafl1lj5ah4r2a",715,"96.csv","","null","resources/images/fishbone.png","null","",NA,NA,NA,NA,""
"image-keyboard-response",392,419639,"0.0-3.127-0.127","yaafl1lj5ah4r2a",715,"96.csv","","219.9999999999418","resources/trios/L1T4A3.jpg","39","restless",0.4,0.4,0.9,0.0428308706725614,"true"
"image-keyboard-response",393,420041,"0.0-3.127-1.127","yaafl1lj5ah4r2a",715,"96.csv","","null","resources/maskTrios/BBA3.jpg","null","",NA,NA,NA,NA,""
"image-keyboard-response",394,421243,"0.0-3.127-2.127","yaafl1lj5ah4r2a",715,"96.csv","","null","resources/images/coin2.png","null","",NA,NA,NA,NA,""
"image-keyboard-response",395,422594,"0.0-3.128-0.128","yaafl1lj5ah4r2a",715,"96.csv","","1349","resources/trios/L1T4A1.jpg","39","restless",0.3,0.4,0.8,0.939605395065025,"false"
"image-keyboard-response",396,422998,"0.0-3.128-1.128","yaafl1lj5ah4r2a",715,"96.csv","","null","resources/maskTrios/BBA1.jpg","null","",NA,NA,NA,NA,""
"image-keyboard-response",397,424200,"0.0-3.128-2.128","yaafl1lj5ah4r2a",715,"96.csv","","null","resources/images/fishbone.png","null","",NA,NA,NA,NA,""
"image-keyboard-response",398,424557,"0.0-3.129-0.129","yaafl1lj5ah4r2a",715,"96.csv","","356","resources/trios/L2T1A1.jpg","37","restless",0.3,0.4,0.8,0.208379105920983,"true"
"image-keyboard-response",399,424959,"0.0-3.129-1.129","yaafl1lj5ah4r2a",715,"96.csv","","null","resources/maskTrios/L2BB.jpg","null","",NA,NA,NA,NA,""
"image-keyboard-response",400,426161,"0.0-3.129-2.129","yaafl1lj5ah4r2a",715,"96.csv","","null","resources/images/coin2.png","null","",NA,NA,NA,NA,""
"image-keyboard-response",401,427113,"0.0-3.130-0.130","yaafl1lj5ah4r2a",715,"96.csv","","951","resources/trios/L1T4A1.jpg","38","restless",0.3,0.4,0.8,0.363748155444748,"true"
"image-keyboard-response",402,427516,"0.0-3.130-1.130","yaafl1lj5ah4r2a",715,"96.csv","","null","resources/maskTrios/BT4B.jpg","null","",NA,NA,NA,NA,""
"image-keyboard-response",403,428718,"0.0-3.130-2.130","yaafl1lj5ah4r2a",715,"96.csv","","null","resources/images/coin2.png","null","",NA,NA,NA,NA,""
"image-keyboard-response",404,430679,"0.0-3.131-0.131","yaafl1lj5ah4r2a",715,"96.csv","","1959","resources/trios/L1T1A3.jpg","39","restless",0.3,0.4,0.8,0.437659057305773,"true"
"image-keyboard-response",405,431081,"0.0-3.131-1.131","yaafl1lj5ah4r2a",715,"96.csv","","null","resources/maskTrios/BBA3.jpg","null","",NA,NA,NA,NA,""
"image-keyboard-response",406,432283,"0.0-3.131-2.131","yaafl1lj5ah4r2a",715,"96.csv","","null","resources/images/coin2.png","null","",NA,NA,NA,NA,""
"image-keyboard-response",407,433814,"0.0-3.132-0.132","yaafl1lj5ah4r2a",715,"96.csv","","1530","resources/trios/L1T4A1.jpg","37","restless",0.3,0.4,0.8,0.0402865914521623,"true"
"image-keyboard-response",408,434218,"0.0-3.132-1.132","yaafl1lj5ah4r2a",715,"96.csv","","null","resources/maskTrios/L1BB.jpg","null","",NA,NA,NA,NA,""
"image-keyboard-response",409,435420,"0.0-3.132-2.132","yaafl1lj5ah4r2a",715,"96.csv","","null","resources/images/coin2.png","null","",NA,NA,NA,NA,""
"image-keyboard-response",410,436312,"0.0-3.133-0.133","yaafl1lj5ah4r2a",715,"96.csv","","891","resources/trios/L2T1A1.jpg","38","restless",0.3,0.4,0.8,0.629787871051668,"false"
"image-keyboard-response",411,436714,"0.0-3.133-1.133","yaafl1lj5ah4r2a",715,"96.csv","","null","resources/maskTrios/BT1B.jpg","null","",NA,NA,NA,NA,""
"image-keyboard-response",412,437916,"0.0-3.133-2.133","yaafl1lj5ah4r2a",715,"96.csv","","null","resources/images/fishbone.png","null","",NA,NA,NA,NA,""
"image-keyboard-response",413,438957,"0.0-3.134-0.134","yaafl1lj5ah4r2a",715,"96.csv","","1039","resources/trios/L1T1A1.jpg","39","restless",0.3,0.4,0.8,0.0950095787980924,"true"
"image-keyboard-response",414,439359,"0.0-3.134-1.134","yaafl1lj5ah4r2a",715,"96.csv","","null","resources/maskTrios/BBA1.jpg","null","",NA,NA,NA,NA,""
"image-keyboard-response",415,440561,"0.0-3.134-2.134","yaafl1lj5ah4r2a",715,"96.csv","","null","resources/images/coin2.png","null","",NA,NA,NA,NA,""
"image-keyboard-response",416,442043,"0.0-3.135-0.135","yaafl1lj5ah4r2a",715,"96.csv","","1481","resources/trios/L2T4A3.jpg","37","restless",0.3,0.4,0.8,0.557712293108688,"false"
"image-keyboard-response",417,442447,"0.0-3.135-1.135","yaafl1lj5ah4r2a",715,"96.csv","","null","resources/maskTrios/L2BB.jpg","null","",NA,NA,NA,NA,""
"image-keyboard-response",418,443649,"0.0-3.135-2.135","yaafl1lj5ah4r2a",715,"96.csv","","null","resources/images/fishbone.png","null","",NA,NA,NA,NA,""
"image-keyboard-response",419,444338,"0.0-3.136-0.136","yaafl1lj5ah4r2a",715,"96.csv","","688","resources/trios/L2T4A1.jpg","39","restless",0.3,0.4,0.8,0.873492395871706,"false"
"image-keyboard-response",420,444740,"0.0-3.136-1.136","yaafl1lj5ah4r2a",715,"96.csv","","null","resources/maskTrios/BBA1.jpg","null","",NA,NA,NA,NA,""
"image-keyboard-response",421,445942,"0.0-3.136-2.136","yaafl1lj5ah4r2a",715,"96.csv","","null","resources/images/fishbone.png","null","",NA,NA,NA,NA,""
"image-keyboard-response",422,446251,"0.0-3.137-0.137","yaafl1lj5ah4r2a",715,"96.csv","","305","resources/trios/L2T1A3.jpg","38","restless",0.3,0.4,0.8,0.0175287114396594,"true"
"image-keyboard-response",423,446653,"0.0-3.137-1.137","yaafl1lj5ah4r2a",715,"96.csv","","null","resources/maskTrios/BT1B.jpg","null","",NA,NA,NA,NA,""
"image-keyboard-response",424,447855,"0.0-3.137-2.137","yaafl1lj5ah4r2a",715,"96.csv","","null","resources/images/coin2.png","null","",NA,NA,NA,NA,""
"image-keyboard-response",425,449245,"0.0-3.138-0.138","yaafl1lj5ah4r2a",715,"96.csv","","1388","resources/trios/L1T1A3.jpg","38","restless",0.3,0.4,0.8,0.721874907725086,"false"
"image-keyboard-response",426,449647,"0.0-3.138-1.138","yaafl1lj5ah4r2a",715,"96.csv","","null","resources/maskTrios/BT1B.jpg","null","",NA,NA,NA,NA,""
"image-keyboard-response",427,450849,"0.0-3.138-2.138","yaafl1lj5ah4r2a",715,"96.csv","","null","resources/images/fishbone.png","null","",NA,NA,NA,NA,""
"image-keyboard-response",428,451850,"0.0-3.139-0.139","yaafl1lj5ah4r2a",715,"96.csv","","1000","resources/trios/L2T1A3.jpg","37","restless",0.3,0.4,0.8,0.949383127488689,"false"
"image-keyboard-response",429,452252,"0.0-3.139-1.139","yaafl1lj5ah4r2a",715,"96.csv","","null","resources/maskTrios/L2BB.jpg","null","",NA,NA,NA,NA,""
"image-keyboard-response",430,453454,"0.0-3.139-2.139","yaafl1lj5ah4r2a",715,"96.csv","","null","resources/images/fishbone.png","null","",NA,NA,NA,NA,""
"image-keyboard-response",431,453742,"0.0-3.140-0.140","yaafl1lj5ah4r2a",715,"96.csv","","285.0000000000582","resources/trios/L1T1A3.jpg","39","restless",0.3,0.5,0.8,0.685308826860669,"true"
"image-keyboard-response",432,454144,"0.0-3.140-1.140","yaafl1lj5ah4r2a",715,"96.csv","","null","resources/maskTrios/BBA3.jpg","null","",NA,NA,NA,NA,""
"image-keyboard-response",433,455346,"0.0-3.140-2.140","yaafl1lj5ah4r2a",715,"96.csv","","null","resources/images/coin2.png","null","",NA,NA,NA,NA,""
"image-keyboard-response",434,456874,"0.0-3.141-0.141","yaafl1lj5ah4r2a",715,"96.csv","","1525.9999999999418","resources/trios/L2T4A3.jpg","38","restless",0.3,0.5,0.8,0.227998750978647,"true"
"image-keyboard-response",435,457276,"0.0-3.141-1.141","yaafl1lj5ah4r2a",715,"96.csv","","null","resources/maskTrios/BT4B.jpg","null","",NA,NA,NA,NA,""
"image-keyboard-response",436,458478,"0.0-3.141-2.141","yaafl1lj5ah4r2a",715,"96.csv","","null","resources/images/coin2.png","null","",NA,NA,NA,NA,""
"image-keyboard-response",437,460152,"0.0-3.142-0.142","yaafl1lj5ah4r2a",715,"96.csv","","1671.9999999999418","resources/trios/L1T4A3.jpg","38","restless",0.3,0.5,0.8,0.23796956468829,"true"
"image-keyboard-response",438,460554,"0.0-3.142-1.142","yaafl1lj5ah4r2a",715,"96.csv","","null","resources/maskTrios/BT4B.jpg","null","",NA,NA,NA,NA,""
"image-keyboard-response",439,461757,"0.0-3.142-2.142","yaafl1lj5ah4r2a",715,"96.csv","","null","resources/images/coin2.png","null","",NA,NA,NA,NA,""
"image-keyboard-response",440,462693,"0.0-3.143-0.143","yaafl1lj5ah4r2a",715,"96.csv","","935","resources/trios/L2T1A3.jpg","37","restless",0.3,0.5,0.8,0.52605493700789,"false"
"image-keyboard-response",441,463096,"0.0-3.143-1.143","yaafl1lj5ah4r2a",715,"96.csv","","null","resources/maskTrios/L2BB.jpg","null","",NA,NA,NA,NA,""
"image-keyboard-response",442,464298,"0.0-3.143-2.143","yaafl1lj5ah4r2a",715,"96.csv","","null","resources/images/fishbone.png","null","",NA,NA,NA,NA,""
"image-keyboard-response",443,464534,"0.0-3.144-0.144","yaafl1lj5ah4r2a",715,"96.csv","","235","resources/trios/L1T4A3.jpg","38","restless",0.3,0.5,0.8,0.710818753229958,"false"
"image-keyboard-response",444,464936,"0.0-3.144-1.144","yaafl1lj5ah4r2a",715,"96.csv","","null","resources/maskTrios/BT4B.jpg","null","",NA,NA,NA,NA,""
"image-keyboard-response",445,466138,"0.0-3.144-2.144","yaafl1lj5ah4r2a",715,"96.csv","","null","resources/images/fishbone.png","null","",NA,NA,NA,NA,""
"image-keyboard-response",446,466502,"0.0-3.145-0.145","yaafl1lj5ah4r2a",715,"96.csv","","363","resources/trios/L1T1A3.jpg","39","restless",0.3,0.5,0.7,0.970431263339279,"false"
"image-keyboard-response",447,466904,"0.0-3.145-1.145","yaafl1lj5ah4r2a",715,"96.csv","","null","resources/maskTrios/BBA3.jpg","null","",NA,NA,NA,NA,""
"image-keyboard-response",448,468106,"0.0-3.145-2.145","yaafl1lj5ah4r2a",715,"96.csv","","null","resources/images/fishbone.png","null","",NA,NA,NA,NA,""
"image-keyboard-response",449,468578,"0.0-3.146-0.146","yaafl1lj5ah4r2a",715,"96.csv","","471","resources/trios/L2T4A3.jpg","38","restless",0.3,0.5,0.7,0.39098170587783,"true"
"image-keyboard-response",450,468980,"0.0-3.146-1.146","yaafl1lj5ah4r2a",715,"96.csv","","null","resources/maskTrios/BT4B.jpg","null","",NA,NA,NA,NA,""
"image-keyboard-response",451,470183,"0.0-3.146-2.146","yaafl1lj5ah4r2a",715,"96.csv","","null","resources/images/coin2.png","null","",NA,NA,NA,NA,""
"image-keyboard-response",452,471069,"0.0-3.147-0.147","yaafl1lj5ah4r2a",715,"96.csv","","884","resources/trios/L2T4A3.jpg","37","restless",0.3,0.6,0.6,0.358181531449472,"false"
"image-keyboard-response",453,471471,"0.0-3.147-1.147","yaafl1lj5ah4r2a",715,"96.csv","","null","resources/maskTrios/L2BB.jpg","null","",NA,NA,NA,NA,""
"image-keyboard-response",454,472673,"0.0-3.147-2.147","yaafl1lj5ah4r2a",715,"96.csv","","null","resources/images/fishbone.png","null","",NA,NA,NA,NA,""
"image-keyboard-response",455,473303,"0.0-3.148-0.148","yaafl1lj5ah4r2a",715,"96.csv","","629","resources/trios/L1T4A1.jpg","38","restless",0.3,0.6,0.6,0.892934908962069,"false"
"image-keyboard-response",456,473705,"0.0-3.148-1.148","yaafl1lj5ah4r2a",715,"96.csv","","null","resources/maskTrios/BT4B.jpg","null","",NA,NA,NA,NA,""
"image-keyboard-response",457,474908,"0.0-3.148-2.148","yaafl1lj5ah4r2a",715,"96.csv","","null","resources/images/fishbone.png","null","",NA,NA,NA,NA,""
"image-keyboard-response",458,476100,"0.0-3.149-0.149","yaafl1lj5ah4r2a",715,"96.csv","","1191.9999999999418","resources/trios/L1T4A3.jpg","38","restless",0.3,0.6,0.6,0.298779928028128,"true"
"image-keyboard-response",459,476502,"0.0-3.149-1.149","yaafl1lj5ah4r2a",715,"96.csv","","null","resources/maskTrios/BT4B.jpg","null","",NA,NA,NA,NA,""
"image-keyboard-response",460,477705,"0.0-3.149-2.149","yaafl1lj5ah4r2a",715,"96.csv","","null","resources/images/coin2.png","null","",NA,NA,NA,NA,""
"image-keyboard-response",461,479356,"0.0-3.150-0.150","yaafl1lj5ah4r2a",715,"96.csv","","1651","resources/trios/L2T4A3.jpg","37","restless",0.3,0.6,0.6,0.741614840730129,"false"
"image-keyboard-response",462,479758,"0.0-3.150-1.150","yaafl1lj5ah4r2a",715,"96.csv","","null","resources/maskTrios/L2BB.jpg","null","",NA,NA,NA,NA,""
"image-keyboard-response",463,480961,"0.0-3.150-2.150","yaafl1lj5ah4r2a",715,"96.csv","","null","resources/images/fishbone.png","null","",NA,NA,NA,NA,""
"image-keyboard-response",464,481697,"0.0-3.151-0.151","yaafl1lj5ah4r2a",715,"96.csv","","735.9999999999418","resources/trios/L2T4A3.jpg","38","restless",0.3,0.5,0.6,0.755791962406591,"false"
"image-keyboard-response",465,482099,"0.0-3.151-1.151","yaafl1lj5ah4r2a",715,"96.csv","","null","resources/maskTrios/BT4B.jpg","null","",NA,NA,NA,NA,""
"image-keyboard-response",466,483301,"0.0-3.151-2.151","yaafl1lj5ah4r2a",715,"96.csv","","null","resources/images/fishbone.png","null","",NA,NA,NA,NA,""
"image-keyboard-response",467,484114,"0.0-3.152-0.152","yaafl1lj5ah4r2a",715,"96.csv","","811","resources/trios/L2T4A3.jpg","39","restless",0.3,0.5,0.6,0.599210483686754,"true"
"image-keyboard-response",468,484516,"0.0-3.152-1.152","yaafl1lj5ah4r2a",715,"96.csv","","null","resources/maskTrios/BBA3.jpg","null","",NA,NA,NA,NA,""
"image-keyboard-response",469,485719,"0.0-3.152-2.152","yaafl1lj5ah4r2a",715,"96.csv","","null","resources/images/coin2.png","null","",NA,NA,NA,NA,""
"image-keyboard-response",470,486989,"0.0-3.153-0.153","yaafl1lj5ah4r2a",715,"96.csv","","1269","resources/trios/L2T4A1.jpg","37","restless",0.3,0.6,0.6,0.501602686808517,"false"
"image-keyboard-response",471,487391,"0.0-3.153-1.153","yaafl1lj5ah4r2a",715,"96.csv","","null","resources/maskTrios/L2BB.jpg","null","",NA,NA,NA,NA,""
"image-keyboard-response",472,488594,"0.0-3.153-2.153","yaafl1lj5ah4r2a",715,"96.csv","","null","resources/images/fishbone.png","null","",NA,NA,NA,NA,""
"image-keyboard-response",473,489051,"0.0-3.154-0.154","yaafl1lj5ah4r2a",715,"96.csv","","457","resources/trios/L2T1A3.jpg","38","restless",0.3,0.6,0.6,0.378325357854041,"true"
"image-keyboard-response",474,489454,"0.0-3.154-1.154","yaafl1lj5ah4r2a",715,"96.csv","","null","resources/maskTrios/BT1B.jpg","null","",NA,NA,NA,NA,""
"image-keyboard-response",475,490655,"0.0-3.154-2.154","yaafl1lj5ah4r2a",715,"96.csv","","null","resources/images/coin2.png","null","",NA,NA,NA,NA,""
"image-keyboard-response",476,491568,"0.0-3.155-0.155","yaafl1lj5ah4r2a",715,"96.csv","","911","resources/trios/L2T1A3.jpg","38","restless",0.4,0.6,0.6,0.271915791080986,"true"
"image-keyboard-response",477,491970,"0.0-3.155-1.155","yaafl1lj5ah4r2a",715,"96.csv","","null","resources/maskTrios/BT1B.jpg","null","",NA,NA,NA,NA,""
"image-keyboard-response",478,493173,"0.0-3.155-2.155","yaafl1lj5ah4r2a",715,"96.csv","","null","resources/images/coin2.png","null","",NA,NA,NA,NA,""
"image-keyboard-response",479,494870,"0.0-3.156-0.156","yaafl1lj5ah4r2a",715,"96.csv","","1696","resources/trios/L1T4A3.jpg","38","restless",0.4,0.6,0.5,0.785823534588691,"false"
"image-keyboard-response",480,495272,"0.0-3.156-1.156","yaafl1lj5ah4r2a",715,"96.csv","","null","resources/maskTrios/BT4B.jpg","null","",NA,NA,NA,NA,""
"image-keyboard-response",481,496474,"0.0-3.156-2.156","yaafl1lj5ah4r2a",715,"96.csv","","null","resources/images/fishbone.png","null","",NA,NA,NA,NA,""
"image-keyboard-response",482,496856,"0.0-3.157-0.157","yaafl1lj5ah4r2a",715,"96.csv","","381.0000000000582","resources/trios/L1T4A3.jpg","39","restless",0.4,0.6,0.5,0.823311847512855,"false"
"image-keyboard-response",483,497258,"0.0-3.157-1.157","yaafl1lj5ah4r2a",715,"96.csv","","null","resources/maskTrios/BBA3.jpg","null","",NA,NA,NA,NA,""
"image-keyboard-response",484,498460,"0.0-3.157-2.157","yaafl1lj5ah4r2a",715,"96.csv","","null","resources/images/fishbone.png","null","",NA,NA,NA,NA,""
"image-keyboard-response",485,498892,"0.0-3.158-0.158","yaafl1lj5ah4r2a",715,"96.csv","","429.0000000000582","resources/trios/L1T1A3.jpg","37","restless",0.4,0.6,0.5,0.783592034294659,"false"
"image-keyboard-response",486,499294,"0.0-3.158-1.158","yaafl1lj5ah4r2a",715,"96.csv","","null","resources/maskTrios/L1BB.jpg","null","",NA,NA,NA,NA,""
"image-keyboard-response",487,500496,"0.0-3.158-2.158","yaafl1lj5ah4r2a",715,"96.csv","","null","resources/images/fishbone.png","null","",NA,NA,NA,NA,""
"image-keyboard-response",488,500785,"0.0-3.159-0.159","yaafl1lj5ah4r2a",715,"96.csv","","286.9999999999418","resources/trios/L2T1A1.jpg","38","restless",0.4,0.6,0.4,0.580352778187521,"true"
"image-keyboard-response",489,501187,"0.0-3.159-1.159","yaafl1lj5ah4r2a",715,"96.csv","","null","resources/maskTrios/BT1B.jpg","null","",NA,NA,NA,NA,""
"image-keyboard-response",490,502389,"0.0-3.159-2.159","yaafl1lj5ah4r2a",715,"96.csv","","null","resources/images/coin2.png","null","",NA,NA,NA,NA,""
"image-keyboard-response",491,503204,"0.0-3.160-0.160","yaafl1lj5ah4r2a",715,"96.csv","","814","resources/trios/L1T1A1.jpg","38","restless",0.4,0.6,0.4,0.926651455064704,"false"
"image-keyboard-response",492,503606,"0.0-3.160-1.160","yaafl1lj5ah4r2a",715,"96.csv","","null","resources/maskTrios/BT1B.jpg","null","",NA,NA,NA,NA,""
"image-keyboard-response",493,504808,"0.0-3.160-2.160","yaafl1lj5ah4r2a",715,"96.csv","","null","resources/images/fishbone.png","null","",NA,NA,NA,NA,""
"image-keyboard-response",494,505318,"0.0-3.161-0.161","yaafl1lj5ah4r2a",715,"96.csv","","509","resources/trios/L2T4A3.jpg","37","restless",0.4,0.6,0.4,0.778717697491124,"false"
"image-keyboard-response",495,505720,"0.0-3.161-1.161","yaafl1lj5ah4r2a",715,"96.csv","","null","resources/maskTrios/L2BB.jpg","null","",NA,NA,NA,NA,""
"image-keyboard-response",496,506922,"0.0-3.161-2.161","yaafl1lj5ah4r2a",715,"96.csv","","null","resources/images/fishbone.png","null","",NA,NA,NA,NA,""
"image-keyboard-response",497,507162,"0.0-3.162-0.162","yaafl1lj5ah4r2a",715,"96.csv","","236","resources/trios/L2T4A3.jpg","39","restless",0.4,0.5,0.4,0.294549143982115,"true"
"image-keyboard-response",498,507563,"0.0-3.162-1.162","yaafl1lj5ah4r2a",715,"96.csv","","null","resources/maskTrios/BBA3.jpg","null","",NA,NA,NA,NA,""
"image-keyboard-response",499,508765,"0.0-3.162-2.162","yaafl1lj5ah4r2a",715,"96.csv","","null","resources/images/coin2.png","null","",NA,NA,NA,NA,""
"image-keyboard-response",500,509657,"0.0-3.163-0.163","yaafl1lj5ah4r2a",715,"96.csv","","890.9999999999418","resources/trios/L1T1A3.jpg","38","restless",0.4,0.5,0.4,0.291177177696621,"true"
"image-keyboard-response",501,510059,"0.0-3.163-1.163","yaafl1lj5ah4r2a",715,"96.csv","","null","resources/maskTrios/BT1B.jpg","null","",NA,NA,NA,NA,""
"image-keyboard-response",502,511262,"0.0-3.163-2.163","yaafl1lj5ah4r2a",715,"96.csv","","null","resources/images/coin2.png","null","",NA,NA,NA,NA,""
"image-keyboard-response",503,512784,"0.0-3.164-0.164","yaafl1lj5ah4r2a",715,"96.csv","","1521.9999999999418","resources/trios/L1T4A1.jpg","38","restless",0.4,0.5,0.4,0.343757787113231,"true"
"image-keyboard-response",504,513187,"0.0-3.164-1.164","yaafl1lj5ah4r2a",715,"96.csv","","null","resources/maskTrios/BT4B.jpg","null","",NA,NA,NA,NA,""
"image-keyboard-response",505,514390,"0.0-3.164-2.164","yaafl1lj5ah4r2a",715,"96.csv","","null","resources/images/coin2.png","null","",NA,NA,NA,NA,""
"image-keyboard-response",506,515539,"0.0-3.165-0.165","yaafl1lj5ah4r2a",715,"96.csv","","1149","resources/trios/L2T1A1.jpg","38","restless",0.4,0.4,0.4,0.873488106041163,"false"
"image-keyboard-response",507,515941,"0.0-3.165-1.165","yaafl1lj5ah4r2a",715,"96.csv","","null","resources/maskTrios/BT1B.jpg","null","",NA,NA,NA,NA,""
"image-keyboard-response",508,517144,"0.0-3.165-2.165","yaafl1lj5ah4r2a",715,"96.csv","","null","resources/images/fishbone.png","null","",NA,NA,NA,NA,""
"image-keyboard-response",509,518667,"0.0-3.166-0.166","yaafl1lj5ah4r2a",715,"96.csv","","1523","resources/trios/L1T4A1.jpg","37","restless",0.4,0.4,0.4,0.040307293790288,"true"
"image-keyboard-response",510,519069,"0.0-3.166-1.166","yaafl1lj5ah4r2a",715,"96.csv","","null","resources/maskTrios/L1BB.jpg","null","",NA,NA,NA,NA,""
"image-keyboard-response",511,520272,"0.0-3.166-2.166","yaafl1lj5ah4r2a",715,"96.csv","","null","resources/images/coin2.png","null","",NA,NA,NA,NA,""
"image-keyboard-response",512,521572,"0.0-3.167-0.167","yaafl1lj5ah4r2a",715,"96.csv","","1300","resources/trios/L2T4A1.jpg","37","restless",0.4,0.4,0.4,0.582739528126038,"false"
"image-keyboard-response",513,521975,"0.0-3.167-1.167","yaafl1lj5ah4r2a",715,"96.csv","","null","resources/maskTrios/L2BB.jpg","null","",NA,NA,NA,NA,""
"image-keyboard-response",514,523177,"0.0-3.167-2.167","yaafl1lj5ah4r2a",715,"96.csv","","null","resources/images/fishbone.png","null","",NA,NA,NA,NA,""
"image-keyboard-response",515,524589,"0.0-3.168-0.168","yaafl1lj5ah4r2a",715,"96.csv","","1410.0000000001164","resources/trios/L2T4A3.jpg","39","restless",0.4,0.4,0.4,0.238370686349971,"true"
"image-keyboard-response",516,524991,"0.0-3.168-1.168","yaafl1lj5ah4r2a",715,"96.csv","","null","resources/maskTrios/BBA3.jpg","null","",NA,NA,NA,NA,""
"image-keyboard-response",517,526193,"0.0-3.168-2.168","yaafl1lj5ah4r2a",715,"96.csv","","null","resources/images/coin2.png","null","",NA,NA,NA,NA,""
"image-keyboard-response",518,526981,"0.0-3.169-0.169","yaafl1lj5ah4r2a",715,"96.csv","","788","resources/trios/L2T4A1.jpg","38","restless",0.4,0.4,0.4,0.210440783749139,"true"
"image-keyboard-response",519,527384,"0.0-3.169-1.169","yaafl1lj5ah4r2a",715,"96.csv","","null","resources/maskTrios/BT4B.jpg","null","",NA,NA,NA,NA,""
"image-keyboard-response",520,528586,"0.0-3.169-2.169","yaafl1lj5ah4r2a",715,"96.csv","","null","resources/images/coin2.png","null","",NA,NA,NA,NA,""
"image-keyboard-response",521,529216,"0.0-3.170-0.170","yaafl1lj5ah4r2a",715,"96.csv","","629","resources/trios/L1T4A3.jpg","38","restless",0.4,0.4,0.4,0.311049568995708,"true"
"image-keyboard-response",522,529617,"0.0-3.170-1.170","yaafl1lj5ah4r2a",715,"96.csv","","null","resources/maskTrios/BT4B.jpg","null","",NA,NA,NA,NA,""
"image-keyboard-response",523,530819,"0.0-3.170-2.170","yaafl1lj5ah4r2a",715,"96.csv","","null","resources/images/coin2.png","null","",NA,NA,NA,NA,""
"image-keyboard-response",524,532157,"0.0-3.171-0.171","yaafl1lj5ah4r2a",715,"96.csv","","1337","resources/trios/L2T4A1.jpg","38","restless",0.4,0.4,0.4,0.832786440732281,"false"
"image-keyboard-response",525,532560,"0.0-3.171-1.171","yaafl1lj5ah4r2a",715,"96.csv","","null","resources/maskTrios/BT4B.jpg","null","",NA,NA,NA,NA,""
"image-keyboard-response",526,533762,"0.0-3.171-2.171","yaafl1lj5ah4r2a",715,"96.csv","","null","resources/images/fishbone.png","null","",NA,NA,NA,NA,""
"image-keyboard-response",527,533940,"0.0-3.172-0.172","yaafl1lj5ah4r2a",715,"96.csv","","175.00000000011642","resources/trios/L2T1A1.jpg","39","restless",0.3,0.4,0.4,0.361376239890517,"true"
"image-keyboard-response",528,534343,"0.0-3.172-1.172","yaafl1lj5ah4r2a",715,"96.csv","","null","resources/maskTrios/BBA1.jpg","null","",NA,NA,NA,NA,""
"image-keyboard-response",529,535544,"0.0-3.172-2.172","yaafl1lj5ah4r2a",715,"96.csv","","null","resources/images/coin2.png","null","",NA,NA,NA,NA,""
"image-keyboard-response",530,536945,"0.0-3.173-0.173","yaafl1lj5ah4r2a",715,"96.csv","","1400","resources/trios/L2T1A3.jpg","37","restless",0.3,0.4,0.4,0.458133514674082,"false"
"image-keyboard-response",531,537347,"0.0-3.173-1.173","yaafl1lj5ah4r2a",715,"96.csv","","null","resources/maskTrios/L2BB.jpg","null","",NA,NA,NA,NA,""
"image-keyboard-response",532,538550,"0.0-3.173-2.173","yaafl1lj5ah4r2a",715,"96.csv","","null","resources/images/fishbone.png","null","",NA,NA,NA,NA,""
"image-keyboard-response",533,538660,"0.0-3.174-0.174","yaafl1lj5ah4r2a",715,"96.csv","","109","resources/trios/L1T4A3.jpg","38","restless",0.2,0.4,0.4,0.8602504214491,"false"
"image-keyboard-response",534,539062,"0.0-3.174-1.174","yaafl1lj5ah4r2a",715,"96.csv","","null","resources/maskTrios/BT4B.jpg","null","",NA,NA,NA,NA,""
"image-keyboard-response",535,540265,"0.0-3.174-2.174","yaafl1lj5ah4r2a",715,"96.csv","","null","resources/images/fishbone.png","null","",NA,NA,NA,NA,""
"image-keyboard-response",536,540616,"0.0-3.175-0.175","yaafl1lj5ah4r2a",715,"96.csv","","351","resources/trios/L1T1A1.jpg","39","restless",0.2,0.4,0.4,0.268435399926798,"true"
"image-keyboard-response",537,541018,"0.0-3.175-1.175","yaafl1lj5ah4r2a",715,"96.csv","","null","resources/maskTrios/BBA1.jpg","null","",NA,NA,NA,NA,""
"image-keyboard-response",538,542221,"0.0-3.175-2.175","yaafl1lj5ah4r2a",715,"96.csv","","null","resources/images/coin2.png","null","",NA,NA,NA,NA,""
"image-keyboard-response",539,544497,"0.0-3.176-0.176","yaafl1lj5ah4r2a",715,"96.csv","","2275","resources/trios/L1T1A3.jpg","38","restless",0.2,0.4,0.4,0.216022889738643,"true"
"image-keyboard-response",540,544901,"0.0-3.176-1.176","yaafl1lj5ah4r2a",715,"96.csv","","null","resources/maskTrios/BT1B.jpg","null","",NA,NA,NA,NA,""
"image-keyboard-response",541,546103,"0.0-3.176-2.176","yaafl1lj5ah4r2a",715,"96.csv","","null","resources/images/coin2.png","null","",NA,NA,NA,NA,""
"image-keyboard-response",542,548860,"0.0-3.177-0.177","yaafl1lj5ah4r2a",715,"96.csv","","2755","resources/trios/L1T1A1.jpg","37","restless",0.2,0.4,0.4,0.55925627405308,"false"
"image-keyboard-response",543,549262,"0.0-3.177-1.177","yaafl1lj5ah4r2a",715,"96.csv","","null","resources/maskTrios/L1BB.jpg","null","",NA,NA,NA,NA,""
"image-keyboard-response",544,550466,"0.0-3.177-2.177","yaafl1lj5ah4r2a",715,"96.csv","","null","resources/images/fishbone.png","null","",NA,NA,NA,NA,""
"image-keyboard-response",545,550494,"0.0-3.178-0.178","yaafl1lj5ah4r2a",715,"96.csv","","27","resources/trios/L1T4A3.jpg","39","restless",0.2,0.4,0.4,0.848373705936626,"false"
"image-keyboard-response",546,550896,"0.0-3.178-1.178","yaafl1lj5ah4r2a",715,"96.csv","","null","resources/maskTrios/BBA3.jpg","null","",NA,NA,NA,NA,""
"image-keyboard-response",547,552099,"0.0-3.178-2.178","yaafl1lj5ah4r2a",715,"96.csv","","null","resources/images/fishbone.png","null","",NA,NA,NA,NA,""
"image-keyboard-response",548,552365,"0.0-3.179-0.179","yaafl1lj5ah4r2a",715,"96.csv","","265","resources/trios/L1T4A1.jpg","38","restless",0.2,0.4,0.4,0.978726325293299,"false"
"image-keyboard-response",549,552766,"0.0-3.179-1.179","yaafl1lj5ah4r2a",715,"96.csv","","null","resources/maskTrios/BT4B.jpg","null","",NA,NA,NA,NA,""
"image-keyboard-response",550,553969,"0.0-3.179-2.179","yaafl1lj5ah4r2a",715,"96.csv","","null","resources/images/fishbone.png","null","",NA,NA,NA,NA,""
"image-keyboard-response",551,558648,"0.0-3.180-0.180","yaafl1lj5ah4r2a",715,"96.csv","","4677.999999999884","resources/trios/L2T1A3.jpg","38","restless",0.2,0.4,0.4,0.381308001310935,"true"
"image-keyboard-response",552,559049,"0.0-3.180-1.180","yaafl1lj5ah4r2a",715,"96.csv","","null","resources/maskTrios/BT1B.jpg","null","",NA,NA,NA,NA,""
"image-keyboard-response",553,560252,"0.0-3.180-2.180","yaafl1lj5ah4r2a",715,"96.csv","","null","resources/images/coin2.png","null","",NA,NA,NA,NA,""
"image-keyboard-response",554,561803,"0.0-3.181-0.181","yaafl1lj5ah4r2a",715,"96.csv","","1552","resources/trios/L2T1A3.jpg","37","restless",0.2,0.4,0.4,0.53985976823018,"false"
"image-keyboard-response",555,562205,"0.0-3.181-1.181","yaafl1lj5ah4r2a",715,"96.csv","","null","resources/maskTrios/L2BB.jpg","null","",NA,NA,NA,NA,""
"image-keyboard-response",556,563405,"0.0-3.181-2.181","yaafl1lj5ah4r2a",715,"96.csv","","null","resources/images/fishbone.png","null","",NA,NA,NA,NA,""
"image-keyboard-response",557,563949,"0.0-3.182-0.182","yaafl1lj5ah4r2a",715,"96.csv","","541.9999999998836","resources/trios/L2T1A1.jpg","38","restless",0.2,0.4,0.4,0.738279201988543,"false"
"image-keyboard-response",558,564350,"0.0-3.182-1.182","yaafl1lj5ah4r2a",715,"96.csv","","null","resources/maskTrios/BT1B.jpg","null","",NA,NA,NA,NA,""
"image-keyboard-response",559,565551,"0.0-3.182-2.182","yaafl1lj5ah4r2a",715,"96.csv","","null","resources/images/fishbone.png","null","",NA,NA,NA,NA,""
"image-keyboard-response",560,566091,"0.0-3.183-0.183","yaafl1lj5ah4r2a",715,"96.csv","","539","resources/trios/L2T1A3.jpg","39","restless",0.2,0.4,0.4,0.357206626350904,"true"
"image-keyboard-response",561,566493,"0.0-3.183-1.183","yaafl1lj5ah4r2a",715,"96.csv","","null","resources/maskTrios/BBA3.jpg","null","",NA,NA,NA,NA,""
"image-keyboard-response",562,567696,"0.0-3.183-2.183","yaafl1lj5ah4r2a",715,"96.csv","","null","resources/images/coin2.png","null","",NA,NA,NA,NA,""
"image-keyboard-response",563,570061,"0.0-3.184-0.184","yaafl1lj5ah4r2a",715,"96.csv","","2366","resources/trios/L2T4A3.jpg","37","restless",0.2,0.4,0.4,0.769246954508949,"false"
"image-keyboard-response",564,570463,"0.0-3.184-1.184","yaafl1lj5ah4r2a",715,"96.csv","","null","resources/maskTrios/L2BB.jpg","null","",NA,NA,NA,NA,""
"image-keyboard-response",565,571664,"0.0-3.184-2.184","yaafl1lj5ah4r2a",715,"96.csv","","null","resources/images/fishbone.png","null","",NA,NA,NA,NA,""
"image-keyboard-response",566,572301,"0.0-3.185-0.185","yaafl1lj5ah4r2a",715,"96.csv","","637.0000000001164","resources/trios/L1T1A1.jpg","39","restless",0.2,0.4,0.5,0.879856718269042,"false"
"image-keyboard-response",567,572702,"0.0-3.185-1.185","yaafl1lj5ah4r2a",715,"96.csv","","null","resources/maskTrios/BBA1.jpg","null","",NA,NA,NA,NA,""
"image-keyboard-response",568,573903,"0.0-3.185-2.185","yaafl1lj5ah4r2a",715,"96.csv","","null","resources/images/fishbone.png","null","",NA,NA,NA,NA,""
"image-keyboard-response",569,574502,"0.0-3.186-0.186","yaafl1lj5ah4r2a",715,"96.csv","","598.0000000001164","resources/trios/L2T4A3.jpg","38","restless",0.2,0.4,0.5,0.157950119101595,"true"
"image-keyboard-response",570,574904,"0.0-3.186-1.186","yaafl1lj5ah4r2a",715,"96.csv","","null","resources/maskTrios/BT4B.jpg","null","",NA,NA,NA,NA,""
"image-keyboard-response",571,576106,"0.0-3.186-2.186","yaafl1lj5ah4r2a",715,"96.csv","","null","resources/images/coin2.png","null","",NA,NA,NA,NA,""
"image-keyboard-response",572,576834,"0.0-3.187-0.187","yaafl1lj5ah4r2a",715,"96.csv","","727","resources/trios/L1T4A1.jpg","38","restless",0.2,0.3,0.6,0.294971989058905,"true"
"image-keyboard-response",573,577235,"0.0-3.187-1.187","yaafl1lj5ah4r2a",715,"96.csv","","null","resources/maskTrios/BT4B.jpg","null","",NA,NA,NA,NA,""
"image-keyboard-response",574,578437,"0.0-3.187-2.187","yaafl1lj5ah4r2a",715,"96.csv","","null","resources/images/coin2.png","null","",NA,NA,NA,NA,""
"image-keyboard-response",575,579547,"0.0-3.188-0.188","yaafl1lj5ah4r2a",715,"96.csv","","1110","resources/trios/L2T1A1.jpg","38","restless",0.2,0.3,0.6,0.906902139585595,"false"
"image-keyboard-response",576,579950,"0.0-3.188-1.188","yaafl1lj5ah4r2a",715,"96.csv","","null","resources/maskTrios/BT1B.jpg","null","",NA,NA,NA,NA,""
"image-keyboard-response",577,581151,"0.0-3.188-2.188","yaafl1lj5ah4r2a",715,"96.csv","","null","resources/images/fishbone.png","null","",NA,NA,NA,NA,""
"image-keyboard-response",578,581431,"0.0-3.189-0.189","yaafl1lj5ah4r2a",715,"96.csv","","279","resources/trios/L1T1A3.jpg","39","restless",0.2,0.2,0.6,0.85268103778486,"false"
"image-keyboard-response",579,581833,"0.0-3.189-1.189","yaafl1lj5ah4r2a",715,"96.csv","","null","resources/maskTrios/BBA3.jpg","null","",NA,NA,NA,NA,""
"image-keyboard-response",580,583035,"0.0-3.189-2.189","yaafl1lj5ah4r2a",715,"96.csv","","null","resources/images/fishbone.png","null","",NA,NA,NA,NA,""
"image-keyboard-response",581,583337,"0.0-3.190-0.190","yaafl1lj5ah4r2a",715,"96.csv","","299","resources/trios/L2T4A3.jpg","37","restless",0.2,0.2,0.6,0.728357837838459,"false"
"image-keyboard-response",582,583739,"0.0-3.190-1.190","yaafl1lj5ah4r2a",715,"96.csv","","null","resources/maskTrios/L2BB.jpg","null","",NA,NA,NA,NA,""
"image-keyboard-response",583,584940,"0.0-3.190-2.190","yaafl1lj5ah4r2a",715,"96.csv","","null","resources/images/fishbone.png","null","",NA,NA,NA,NA,""
"image-keyboard-response",584,585600,"0.0-3.191-0.191","yaafl1lj5ah4r2a",715,"96.csv","","659","resources/trios/L1T1A1.jpg","38","restless",0.2,0.2,0.6,0.240845854806788,"false"
"image-keyboard-response",585,586002,"0.0-3.191-1.191","yaafl1lj5ah4r2a",715,"96.csv","","null","resources/maskTrios/BT1B.jpg","null","",NA,NA,NA,NA,""
"image-keyboard-response",586,587204,"0.0-3.191-2.191","yaafl1lj5ah4r2a",715,"96.csv","","null","resources/images/fishbone.png","null","",NA,NA,NA,NA,""
"image-keyboard-response",587,588679,"0.0-3.192-0.192","yaafl1lj5ah4r2a",715,"96.csv","","1474","resources/trios/L1T4A1.jpg","38","restless",0.3,0.2,0.6,0.420787718821913,"false"
"image-keyboard-response",588,589080,"0.0-3.192-1.192","yaafl1lj5ah4r2a",715,"96.csv","","null","resources/maskTrios/BT4B.jpg","null","",NA,NA,NA,NA,""
"image-keyboard-response",589,590282,"0.0-3.192-2.192","yaafl1lj5ah4r2a",715,"96.csv","","null","resources/images/fishbone.png","null","",NA,NA,NA,NA,""
"image-keyboard-response",590,590936,"0.0-3.193-0.193","yaafl1lj5ah4r2a",715,"96.csv","","652","resources/trios/L2T1A1.jpg","38","restless",0.3,0.2,0.7,0.26973060421508,"false"
"image-keyboard-response",591,591338,"0.0-3.193-1.193","yaafl1lj5ah4r2a",715,"96.csv","","null","resources/maskTrios/BT1B.jpg","null","",NA,NA,NA,NA,""
"image-keyboard-response",592,592540,"0.0-3.193-2.193","yaafl1lj5ah4r2a",715,"96.csv","","null","resources/images/fishbone.png","null","",NA,NA,NA,NA,""
"image-keyboard-response",593,592924,"0.0-3.194-0.194","yaafl1lj5ah4r2a",715,"96.csv","","384","resources/trios/L2T1A1.jpg","37","restless",0.3,0.2,0.7,0.190478196117303,"true"
"image-keyboard-response",594,593327,"0.0-3.194-1.194","yaafl1lj5ah4r2a",715,"96.csv","","null","resources/maskTrios/L2BB.jpg","null","",NA,NA,NA,NA,""
"image-keyboard-response",595,594529,"0.0-3.194-2.194","yaafl1lj5ah4r2a",715,"96.csv","","null","resources/images/coin2.png","null","",NA,NA,NA,NA,""
"image-keyboard-response",596,595530,"0.0-3.195-0.195","yaafl1lj5ah4r2a",715,"96.csv","","1000","resources/trios/L1T4A3.jpg","38","restless",0.3,0.2,0.7,0.81582833899102,"false"
"image-keyboard-response",597,595932,"0.0-3.195-1.195","yaafl1lj5ah4r2a",715,"96.csv","","null","resources/maskTrios/BT4B.jpg","null","",NA,NA,NA,NA,""
"image-keyboard-response",598,597134,"0.0-3.195-2.195","yaafl1lj5ah4r2a",715,"96.csv","","null","resources/images/fishbone.png","null","",NA,NA,NA,NA,""
"image-keyboard-response",599,597452,"0.0-3.196-0.196","yaafl1lj5ah4r2a",715,"96.csv","","318","resources/trios/L2T1A3.jpg","37","restless",0.3,0.2,0.7,0.86925068740375,"false"
"image-keyboard-response",600,597855,"0.0-3.196-1.196","yaafl1lj5ah4r2a",715,"96.csv","","null","resources/maskTrios/L2BB.jpg","null","",NA,NA,NA,NA,""
"image-keyboard-response",601,599056,"0.0-3.196-2.196","yaafl1lj5ah4r2a",715,"96.csv","","null","resources/images/fishbone.png","null","",NA,NA,NA,NA,""
"image-keyboard-response",602,600330,"0.0-3.197-0.197","yaafl1lj5ah4r2a",715,"96.csv","","1273","resources/trios/L2T4A1.jpg","39","restless",0.3,0.2,0.7,0.0133712096247987,"true"
"image-keyboard-response",603,600733,"0.0-3.197-1.197","yaafl1lj5ah4r2a",715,"96.csv","","null","resources/maskTrios/BBA1.jpg","null","",NA,NA,NA,NA,""
"image-keyboard-response",604,601935,"0.0-3.197-2.197","yaafl1lj5ah4r2a",715,"96.csv","","null","resources/images/coin2.png","null","",NA,NA,NA,NA,""
"image-keyboard-response",605,602795,"0.0-3.198-0.198","yaafl1lj5ah4r2a",715,"96.csv","","859","resources/trios/L2T4A3.jpg","39","restless",0.3,0.2,0.7,0.606690061336144,"true"
"image-keyboard-response",606,603197,"0.0-3.198-1.198","yaafl1lj5ah4r2a",715,"96.csv","","null","resources/maskTrios/BBA3.jpg","null","",NA,NA,NA,NA,""
"image-keyboard-response",607,604399,"0.0-3.198-2.198","yaafl1lj5ah4r2a",715,"96.csv","","null","resources/images/coin2.png","null","",NA,NA,NA,NA,""
"image-keyboard-response",608,604974,"0.0-3.199-0.199","yaafl1lj5ah4r2a",715,"96.csv","","573","resources/trios/L1T4A1.jpg","39","restless",0.3,0.2,0.7,0.72168867195217,"false"
"image-keyboard-response",609,605376,"0.0-3.199-1.199","yaafl1lj5ah4r2a",715,"96.csv","","null","resources/maskTrios/BBA1.jpg","null","",NA,NA,NA,NA,""
"image-keyboard-response",610,606578,"0.0-3.199-2.199","yaafl1lj5ah4r2a",715,"96.csv","","null","resources/images/fishbone.png","null","",NA,NA,NA,NA,""
"image-keyboard-response",611,607269,"0.0-3.200-0.200","yaafl1lj5ah4r2a",715,"96.csv","","690","resources/trios/L2T1A3.jpg","37","restless",0.3,0.2,0.7,0.701316378855843,"false"
"image-keyboard-response",612,607671,"0.0-3.200-1.200","yaafl1lj5ah4r2a",715,"96.csv","","null","resources/maskTrios/L2BB.jpg","null","",NA,NA,NA,NA,""
"image-keyboard-response",613,608872,"0.0-3.200-2.200","yaafl1lj5ah4r2a",715,"96.csv","","null","resources/images/fishbone.png","null","",NA,NA,NA,NA,""
"image-keyboard-response",614,609757,"0.0-3.201-0.201","yaafl1lj5ah4r2a",715,"96.csv","","883","resources/trios/L2T4A1.jpg","38","restless",0.3,0.2,0.7,0.120107287903673,"true"
"image-keyboard-response",615,610159,"0.0-3.201-1.201","yaafl1lj5ah4r2a",715,"96.csv","","null","resources/maskTrios/BT4B.jpg","null","",NA,NA,NA,NA,""
"image-keyboard-response",616,611361,"0.0-3.201-2.201","yaafl1lj5ah4r2a",715,"96.csv","","null","resources/images/coin2.png","null","",NA,NA,NA,NA,""
"image-keyboard-response",617,612266,"0.0-3.202-0.202","yaafl1lj5ah4r2a",715,"96.csv","","902.9999999998836","resources/trios/L1T4A3.jpg","38","restless",0.3,0.2,0.7,0.877993090313695,"false"
"image-keyboard-response",618,612668,"0.0-3.202-1.202","yaafl1lj5ah4r2a",715,"96.csv","","null","resources/maskTrios/BT4B.jpg","null","",NA,NA,NA,NA,""
"image-keyboard-response",619,613870,"0.0-3.202-2.202","yaafl1lj5ah4r2a",715,"96.csv","","null","resources/images/fishbone.png","null","",NA,NA,NA,NA,""
"image-keyboard-response",620,614470,"0.0-3.203-0.203","yaafl1lj5ah4r2a",715,"96.csv","","600","resources/trios/L2T4A1.jpg","37","restless",0.3,0.2,0.7,0.490147568196922,"false"
