"trial_type","trial_index","time_elapsed","internal_node_id","subject","participantCode","walkNumber","success","rt","stimulus","key_press","test_part","leftProb","midProb","rightProb","generatedNum","correct"
"pavlovia",0,1193,"0.0-0.0","mlmn9dg7cmbsm27",727,"165.csv","","","","","",NA,NA,NA,NA,""
"fullscreen",1,44478,"0.0-1.0","mlmn9dg7cmbsm27",727,"165.csv","true","","","","",NA,NA,NA,NA,""
"html-keyboard-response",2,51452,"0.0-2.0-0.0","mlmn9dg7cmbsm27",727,"165.csv","","6971.89999999851","<p><font size='6'>Arrrgh!</p></font><p>Can you be the best pirate? Try to find lots of gold! But beware, some islands have more gold than others, and over time, the island with the most gold may change. Can YOU figure it out? </p><font size='6'>GOOD LUCK, CAPTAIN!!!</font><p>Press any key to begin</p>","75","",NA,NA,NA,NA,""
"image-keyboard-response",3,54464,"0.0-2.0-1.0","mlmn9dg7cmbsm27",727,"165.csv","","null","resources/image_sets/111.png","null","",NA,NA,NA,NA,""
"image-keyboard-response",4,98420,"0.0-2.0-2.0","mlmn9dg7cmbsm27",727,"165.csv","","43954.699999999255","resources/image_sets/left_highlight.png","37","",NA,NA,NA,NA,""
"image-keyboard-response",5,100778,"0.0-2.0-3.0","mlmn9dg7cmbsm27",727,"165.csv","","2354.60000000149","resources/image_sets/mid_highlight.png","38","",NA,NA,NA,NA,""
"image-keyboard-response",6,102333,"0.0-2.0-4.0","mlmn9dg7cmbsm27",727,"165.csv","","1552.699999999255","resources/image_sets/right_highlight.png","39","",NA,NA,NA,NA,""
"image-keyboard-response",7,112391,"0.0-2.0-5.0","mlmn9dg7cmbsm27",727,"165.csv","","10055.89999999851","resources/image_sets/111.png","13","",NA,NA,NA,NA,""
"image-keyboard-response",8,115225,"0.0-2.0-6.0","mlmn9dg7cmbsm27",727,"165.csv","","2832.89999999851","resources/images/coin2.png","13","",NA,NA,NA,NA,""
"image-keyboard-response",9,117725,"0.0-2.0-7.0","mlmn9dg7cmbsm27",727,"165.csv","","2497.7999999970198","resources/images/fishbone.png","13","",NA,NA,NA,NA,""
"html-keyboard-response",10,122776,"0.0-2.0-8.0","mlmn9dg7cmbsm27",727,"165.csv","","5049.10000000149","<p>Your first journey will be a long one, but you will get a well deserved break at the end</p><p>After the break you will have four more journeys, but each will be much shorter than the first, and you will have breaks in between each</p><p>Press Enter to begin</p>","13","",NA,NA,NA,NA,""
"image-keyboard-response",11,124228,"0.0-3.0-0.0","mlmn9dg7cmbsm27",727,"165.csv","","1448.800000000745","resources/trios/L2T4A3.jpg","37","restless",0.7,0.3,0.9,0.370713742562943,"true"
"image-keyboard-response",12,124640,"0.0-3.0-1.0","mlmn9dg7cmbsm27",727,"165.csv","","null","resources/maskTrios/L2BB.jpg","null","",NA,NA,NA,NA,""
"image-keyboard-response",13,125856,"0.0-3.0-2.0","mlmn9dg7cmbsm27",727,"165.csv","","null","resources/images/coin2.png","null","",NA,NA,NA,NA,""
"image-keyboard-response",14,127110,"0.0-3.1-0.1","mlmn9dg7cmbsm27",727,"165.csv","","1251","resources/trios/L1T4A2.jpg","38","restless",0.7,0.3,0.9,0.245744356971344,"true"
"image-keyboard-response",15,127520,"0.0-3.1-1.1","mlmn9dg7cmbsm27",727,"165.csv","","null","resources/maskTrios/BT4B.jpg","null","",NA,NA,NA,NA,""
"image-keyboard-response",16,128724,"0.0-3.1-2.1","mlmn9dg7cmbsm27",727,"165.csv","","null","resources/images/coin2.png","null","",NA,NA,NA,NA,""
"image-keyboard-response",17,129218,"0.0-3.2-0.2","mlmn9dg7cmbsm27",727,"165.csv","","491.80000000074506","resources/trios/L2T4A3.jpg","39","restless",0.7,0.3,0.9,0.867020278527228,"true"
"image-keyboard-response",18,129631,"0.0-3.2-1.2","mlmn9dg7cmbsm27",727,"165.csv","","null","resources/maskTrios/BBA3.jpg","null","",NA,NA,NA,NA,""
"image-keyboard-response",19,130836,"0.0-3.2-2.2","mlmn9dg7cmbsm27",727,"165.csv","","null","resources/images/coin2.png","null","",NA,NA,NA,NA,""
"image-keyboard-response",20,131195,"0.0-3.3-0.3","mlmn9dg7cmbsm27",727,"165.csv","","356.69999999925494","resources/trios/L1T4A3.jpg","37","restless",0.7,0.4,0.9,0.39632092767373,"true"
"image-keyboard-response",21,131604,"0.0-3.3-1.3","mlmn9dg7cmbsm27",727,"165.csv","","null","resources/maskTrios/L1BB.jpg","null","",NA,NA,NA,NA,""
"image-keyboard-response",22,132816,"0.0-3.3-2.3","mlmn9dg7cmbsm27",727,"165.csv","","null","resources/images/coin2.png","null","",NA,NA,NA,NA,""
"image-keyboard-response",23,133183,"0.0-3.4-0.4","mlmn9dg7cmbsm27",727,"165.csv","","365","resources/trios/L2T2A2.jpg","38","restless",0.7,0.4,0.9,0.793774367837377,"false"
"image-keyboard-response",24,133591,"0.0-3.4-1.4","mlmn9dg7cmbsm27",727,"165.csv","","null","resources/maskTrios/BT2B.jpg","null","",NA,NA,NA,NA,""
"image-keyboard-response",25,134800,"0.0-3.4-2.4","mlmn9dg7cmbsm27",727,"165.csv","","null","resources/images/fishbone.png","null","",NA,NA,NA,NA,""
"image-keyboard-response",26,135583,"0.0-3.5-0.5","mlmn9dg7cmbsm27",727,"165.csv","","781.3999999985099","resources/trios/L1T4A2.jpg","37","restless",0.7,0.4,0.9,0.899957220436483,"false"
"image-keyboard-response",27,135992,"0.0-3.5-1.5","mlmn9dg7cmbsm27",727,"165.csv","","null","resources/maskTrios/L1BB.jpg","null","",NA,NA,NA,NA,""
"image-keyboard-response",28,137200,"0.0-3.5-2.5","mlmn9dg7cmbsm27",727,"165.csv","","null","resources/images/fishbone.png","null","",NA,NA,NA,NA,""
"image-keyboard-response",29,137523,"0.0-3.6-0.6","mlmn9dg7cmbsm27",727,"165.csv","","320.70000000298023","resources/trios/L1T4A2.jpg","39","restless",0.7,0.4,0.9,0.141999213366677,"true"
"image-keyboard-response",30,137932,"0.0-3.6-1.6","mlmn9dg7cmbsm27",727,"165.csv","","null","resources/maskTrios/BBA2.jpg","null","",NA,NA,NA,NA,""
"image-keyboard-response",31,139144,"0.0-3.6-2.6","mlmn9dg7cmbsm27",727,"165.csv","","null","resources/images/coin2.png","null","",NA,NA,NA,NA,""
"image-keyboard-response",32,140437,"0.0-3.7-0.7","mlmn9dg7cmbsm27",727,"165.csv","","1291.199999999255","resources/trios/L2T4A2.jpg","37","restless",0.7,0.4,0.9,0.321338125771927,"true"
"image-keyboard-response",33,140847,"0.0-3.7-1.7","mlmn9dg7cmbsm27",727,"165.csv","","null","resources/maskTrios/L2BB.jpg","null","",NA,NA,NA,NA,""
"image-keyboard-response",34,142055,"0.0-3.7-2.7","mlmn9dg7cmbsm27",727,"165.csv","","null","resources/images/coin2.png","null","",NA,NA,NA,NA,""
"image-keyboard-response",35,142695,"0.0-3.8-0.8","mlmn9dg7cmbsm27",727,"165.csv","","637","resources/trios/L2T2A3.jpg","37","restless",0.7,0.4,0.9,0.0251306003569833,"true"
"image-keyboard-response",36,143103,"0.0-3.8-1.8","mlmn9dg7cmbsm27",727,"165.csv","","null","resources/maskTrios/L2BB.jpg","null","",NA,NA,NA,NA,""
"image-keyboard-response",37,144311,"0.0-3.8-2.8","mlmn9dg7cmbsm27",727,"165.csv","","null","resources/images/coin2.png","null","",NA,NA,NA,NA,""
"image-keyboard-response",38,144773,"0.0-3.9-0.9","mlmn9dg7cmbsm27",727,"165.csv","","458.69999999925494","resources/trios/L1T2A3.jpg","37","restless",0.7,0.4,0.9,0.674287876703737,"true"
"image-keyboard-response",39,145183,"0.0-3.9-1.9","mlmn9dg7cmbsm27",727,"165.csv","","null","resources/maskTrios/L1BB.jpg","null","",NA,NA,NA,NA,""
"image-keyboard-response",40,146391,"0.0-3.9-2.9","mlmn9dg7cmbsm27",727,"165.csv","","null","resources/images/coin2.png","null","",NA,NA,NA,NA,""
"image-keyboard-response",41,147338,"0.0-3.10-0.10","mlmn9dg7cmbsm27",727,"165.csv","","944.1999999992549","resources/trios/L2T4A3.jpg","39","restless",0.7,0.4,0.9,0.27597620796732,"true"
"image-keyboard-response",42,147751,"0.0-3.10-1.10","mlmn9dg7cmbsm27",727,"165.csv","","null","resources/maskTrios/BBA3.jpg","null","",NA,NA,NA,NA,""
"image-keyboard-response",43,148959,"0.0-3.10-2.10","mlmn9dg7cmbsm27",727,"165.csv","","null","resources/images/coin2.png","null","",NA,NA,NA,NA,""
"image-keyboard-response",44,149384,"0.0-3.11-0.11","mlmn9dg7cmbsm27",727,"165.csv","","422.4000000022352","resources/trios/L1T2A2.jpg","37","restless",0.7,0.4,0.9,0.170315537926911,"true"
"image-keyboard-response",45,149799,"0.0-3.11-1.11","mlmn9dg7cmbsm27",727,"165.csv","","null","resources/maskTrios/L1BB.jpg","null","",NA,NA,NA,NA,""
"image-keyboard-response",46,151007,"0.0-3.11-2.11","mlmn9dg7cmbsm27",727,"165.csv","","null","resources/images/coin2.png","null","",NA,NA,NA,NA,""
"image-keyboard-response",47,151371,"0.0-3.12-0.12","mlmn9dg7cmbsm27",727,"165.csv","","362.5","resources/trios/L1T2A3.jpg","37","restless",0.7,0.4,0.9,0.939457152119398,"false"
"image-keyboard-response",48,151783,"0.0-3.12-1.12","mlmn9dg7cmbsm27",727,"165.csv","","null","resources/maskTrios/L1BB.jpg","null","",NA,NA,NA,NA,""
"image-keyboard-response",49,152991,"0.0-3.12-2.12","mlmn9dg7cmbsm27",727,"165.csv","","null","resources/images/fishbone.png","null","",NA,NA,NA,NA,""
"image-keyboard-response",50,153795,"0.0-3.13-0.13","mlmn9dg7cmbsm27",727,"165.csv","","801.2000000029802","resources/trios/L2T2A2.jpg","39","restless",0.7,0.4,0.9,0.597861988951768,"true"
"image-keyboard-response",51,154207,"0.0-3.13-1.13","mlmn9dg7cmbsm27",727,"165.csv","","null","resources/maskTrios/BBA2.jpg","null","",NA,NA,NA,NA,""
"image-keyboard-response",52,155411,"0.0-3.13-2.13","mlmn9dg7cmbsm27",727,"165.csv","","null","resources/images/coin2.png","null","",NA,NA,NA,NA,""
"image-keyboard-response",53,156114,"0.0-3.14-0.14","mlmn9dg7cmbsm27",727,"165.csv","","700.7999999970198","resources/trios/L2T2A3.jpg","37","restless",0.7,0.4,0.9,0.275720518577328,"true"
"image-keyboard-response",54,156527,"0.0-3.14-1.14","mlmn9dg7cmbsm27",727,"165.csv","","null","resources/maskTrios/L2BB.jpg","null","",NA,NA,NA,NA,""
"image-keyboard-response",55,157735,"0.0-3.14-2.14","mlmn9dg7cmbsm27",727,"165.csv","","null","resources/images/coin2.png","null","",NA,NA,NA,NA,""
"image-keyboard-response",56,158345,"0.0-3.15-0.15","mlmn9dg7cmbsm27",727,"165.csv","","606.9000000022352","resources/trios/L1T2A2.jpg","37","restless",0.7,0.4,0.9,0.754749029825059,"false"
"image-keyboard-response",57,158759,"0.0-3.15-1.15","mlmn9dg7cmbsm27",727,"165.csv","","null","resources/maskTrios/L1BB.jpg","null","",NA,NA,NA,NA,""
"image-keyboard-response",58,159967,"0.0-3.15-2.15","mlmn9dg7cmbsm27",727,"165.csv","","null","resources/images/fishbone.png","null","",NA,NA,NA,NA,""
"image-keyboard-response",59,160643,"0.0-3.16-0.16","mlmn9dg7cmbsm27",727,"165.csv","","673.7999999970198","resources/trios/L1T2A3.jpg","39","restless",0.7,0.3,0.9,0.559377116224913,"true"
"image-keyboard-response",60,161055,"0.0-3.16-1.16","mlmn9dg7cmbsm27",727,"165.csv","","null","resources/maskTrios/BBA3.jpg","null","",NA,NA,NA,NA,""
"image-keyboard-response",61,162263,"0.0-3.16-2.16","mlmn9dg7cmbsm27",727,"165.csv","","null","resources/images/coin2.png","null","",NA,NA,NA,NA,""
"image-keyboard-response",62,162722,"0.0-3.17-0.17","mlmn9dg7cmbsm27",727,"165.csv","","457.19999999925494","resources/trios/L1T4A2.jpg","37","restless",0.7,0.3,0.9,0.912155632010762,"false"
"image-keyboard-response",63,163135,"0.0-3.17-1.17","mlmn9dg7cmbsm27",727,"165.csv","","null","resources/maskTrios/L1BB.jpg","null","",NA,NA,NA,NA,""
"image-keyboard-response",64,164343,"0.0-3.17-2.17","mlmn9dg7cmbsm27",727,"165.csv","","null","resources/images/fishbone.png","null","",NA,NA,NA,NA,""
"image-keyboard-response",65,165045,"0.0-3.18-0.18","mlmn9dg7cmbsm27",727,"165.csv","","699.2999999970198","resources/trios/L2T2A2.jpg","39","restless",0.6,0.3,0.9,0.571346979496532,"true"
"image-keyboard-response",66,165455,"0.0-3.18-1.18","mlmn9dg7cmbsm27",727,"165.csv","","null","resources/maskTrios/BBA2.jpg","null","",NA,NA,NA,NA,""
"image-keyboard-response",67,166663,"0.0-3.18-2.18","mlmn9dg7cmbsm27",727,"165.csv","","null","resources/images/coin2.png","null","",NA,NA,NA,NA,""
"image-keyboard-response",68,167781,"0.0-3.19-0.19","mlmn9dg7cmbsm27",727,"165.csv","","1116.199999999255","resources/trios/L1T2A2.jpg","38","restless",0.6,0.3,0.9,0.982356943977936,"false"
"image-keyboard-response",69,168189,"0.0-3.19-1.19","mlmn9dg7cmbsm27",727,"165.csv","","null","resources/maskTrios/BT2B.jpg","null","",NA,NA,NA,NA,""
"image-keyboard-response",70,169399,"0.0-3.19-2.19","mlmn9dg7cmbsm27",727,"165.csv","","null","resources/images/fishbone.png","null","",NA,NA,NA,NA,""
"image-keyboard-response",71,169755,"0.0-3.20-0.20","mlmn9dg7cmbsm27",727,"165.csv","","354","resources/trios/L2T4A2.jpg","39","restless",0.6,0.3,0.9,0.6677953219248,"true"
"image-keyboard-response",72,170167,"0.0-3.20-1.20","mlmn9dg7cmbsm27",727,"165.csv","","null","resources/maskTrios/BBA2.jpg","null","",NA,NA,NA,NA,""
"image-keyboard-response",73,171375,"0.0-3.20-2.20","mlmn9dg7cmbsm27",727,"165.csv","","null","resources/images/coin2.png","null","",NA,NA,NA,NA,""
"image-keyboard-response",74,171891,"0.0-3.21-0.21","mlmn9dg7cmbsm27",727,"165.csv","","513.7999999970198","resources/trios/L1T2A2.jpg","39","restless",0.6,0.3,0.9,0.677165404470905,"true"
"image-keyboard-response",75,172303,"0.0-3.21-1.21","mlmn9dg7cmbsm27",727,"165.csv","","null","resources/maskTrios/BBA2.jpg","null","",NA,NA,NA,NA,""
"image-keyboard-response",76,173511,"0.0-3.21-2.21","mlmn9dg7cmbsm27",727,"165.csv","","null","resources/images/coin2.png","null","",NA,NA,NA,NA,""
"image-keyboard-response",77,174037,"0.0-3.22-0.22","mlmn9dg7cmbsm27",727,"165.csv","","523.6000000014901","resources/trios/L1T2A2.jpg","39","restless",0.6,0.3,0.9,0.683618692887655,"true"
"image-keyboard-response",78,174446,"0.0-3.22-1.22","mlmn9dg7cmbsm27",727,"165.csv","","null","resources/maskTrios/BBA2.jpg","null","",NA,NA,NA,NA,""
"image-keyboard-response",79,175651,"0.0-3.22-2.22","mlmn9dg7cmbsm27",727,"165.csv","","null","resources/images/coin2.png","null","",NA,NA,NA,NA,""
"image-keyboard-response",80,175984,"0.0-3.23-0.23","mlmn9dg7cmbsm27",727,"165.csv","","331.29999999701977","resources/trios/L2T2A2.jpg","37","restless",0.6,0.4,0.9,0.955468293175872,"false"
"image-keyboard-response",81,176398,"0.0-3.23-1.23","mlmn9dg7cmbsm27",727,"165.csv","","null","resources/maskTrios/L2BB.jpg","null","",NA,NA,NA,NA,""
"image-keyboard-response",82,177606,"0.0-3.23-2.23","mlmn9dg7cmbsm27",727,"165.csv","","null","resources/images/fishbone.png","null","",NA,NA,NA,NA,""
"image-keyboard-response",83,177889,"0.0-3.24-0.24","mlmn9dg7cmbsm27",727,"165.csv","","280.19999999925494","resources/trios/L1T2A3.jpg","39","restless",0.6,0.4,0.9,0.693512599951085,"true"
"image-keyboard-response",84,178300,"0.0-3.24-1.24","mlmn9dg7cmbsm27",727,"165.csv","","null","resources/maskTrios/BBA3.jpg","null","",NA,NA,NA,NA,""
"image-keyboard-response",85,179510,"0.0-3.24-2.24","mlmn9dg7cmbsm27",727,"165.csv","","null","resources/images/coin2.png","null","",NA,NA,NA,NA,""
"image-keyboard-response",86,179898,"0.0-3.25-0.25","mlmn9dg7cmbsm27",727,"165.csv","","385.6000000014901","resources/trios/L1T4A3.jpg","39","restless",0.6,0.4,0.8,0.503915835555726,"true"
"image-keyboard-response",87,180310,"0.0-3.25-1.25","mlmn9dg7cmbsm27",727,"165.csv","","null","resources/maskTrios/BBA3.jpg","null","",NA,NA,NA,NA,""
"image-keyboard-response",88,181518,"0.0-3.25-2.25","mlmn9dg7cmbsm27",727,"165.csv","","null","resources/images/coin2.png","null","",NA,NA,NA,NA,""
"image-keyboard-response",89,181675,"0.0-3.26-0.26","mlmn9dg7cmbsm27",727,"165.csv","","154.10000000149012","resources/trios/L2T4A2.jpg","39","restless",0.6,0.4,0.8,0.0936618411576946,"true"
"image-keyboard-response",90,182086,"0.0-3.26-1.26","mlmn9dg7cmbsm27",727,"165.csv","","null","resources/maskTrios/BBA2.jpg","null","",NA,NA,NA,NA,""
"image-keyboard-response",91,183294,"0.0-3.26-2.26","mlmn9dg7cmbsm27",727,"165.csv","","null","resources/images/coin2.png","null","",NA,NA,NA,NA,""
"image-keyboard-response",92,183504,"0.0-3.27-0.27","mlmn9dg7cmbsm27",727,"165.csv","","207.30000000074506","resources/trios/L1T2A2.jpg","39","restless",0.6,0.4,0.7,0.67986149185898,"true"
"image-keyboard-response",93,183918,"0.0-3.27-1.27","mlmn9dg7cmbsm27",727,"165.csv","","null","resources/maskTrios/BBA2.jpg","null","",NA,NA,NA,NA,""
"image-keyboard-response",94,185126,"0.0-3.27-2.27","mlmn9dg7cmbsm27",727,"165.csv","","null","resources/images/coin2.png","null","",NA,NA,NA,NA,""
"image-keyboard-response",95,185552,"0.0-3.28-0.28","mlmn9dg7cmbsm27",727,"165.csv","","423.29999999701977","resources/trios/L1T2A3.jpg","39","restless",0.6,0.4,0.7,0.453073834953767,"true"
"image-keyboard-response",96,185966,"0.0-3.28-1.28","mlmn9dg7cmbsm27",727,"165.csv","","null","resources/maskTrios/BBA3.jpg","null","",NA,NA,NA,NA,""
"image-keyboard-response",97,187172,"0.0-3.28-2.28","mlmn9dg7cmbsm27",727,"165.csv","","null","resources/images/coin2.png","null","",NA,NA,NA,NA,""
"image-keyboard-response",98,187504,"0.0-3.29-0.29","mlmn9dg7cmbsm27",727,"165.csv","","330","resources/trios/L1T2A2.jpg","39","restless",0.6,0.4,0.7,0.581334326950471,"true"
"image-keyboard-response",99,187918,"0.0-3.29-1.29","mlmn9dg7cmbsm27",727,"165.csv","","null","resources/maskTrios/BBA2.jpg","null","",NA,NA,NA,NA,""
"image-keyboard-response",100,189126,"0.0-3.29-2.29","mlmn9dg7cmbsm27",727,"165.csv","","null","resources/images/coin2.png","null","",NA,NA,NA,NA,""
"image-keyboard-response",101,189476,"0.0-3.30-0.30","mlmn9dg7cmbsm27",727,"165.csv","","347.3999999985099","resources/trios/L1T4A2.jpg","39","restless",0.5,0.4,0.7,0.014046190225343,"true"
"image-keyboard-response",102,189886,"0.0-3.30-1.30","mlmn9dg7cmbsm27",727,"165.csv","","null","resources/maskTrios/BBA2.jpg","null","",NA,NA,NA,NA,""
"image-keyboard-response",103,191094,"0.0-3.30-2.30","mlmn9dg7cmbsm27",727,"165.csv","","null","resources/images/coin2.png","null","",NA,NA,NA,NA,""
"image-keyboard-response",104,191181,"0.0-3.31-0.31","mlmn9dg7cmbsm27",727,"165.csv","","84.39999999850988","resources/trios/L2T2A3.jpg","39","restless",0.5,0.4,0.7,0.436493988362494,"true"
"image-keyboard-response",105,191590,"0.0-3.31-1.31","mlmn9dg7cmbsm27",727,"165.csv","","null","resources/maskTrios/BBA3.jpg","null","",NA,NA,NA,NA,""
"image-keyboard-response",106,192798,"0.0-3.31-2.31","mlmn9dg7cmbsm27",727,"165.csv","","null","resources/images/coin2.png","null","",NA,NA,NA,NA,""
"image-keyboard-response",107,192805,"0.0-3.32-0.32","mlmn9dg7cmbsm27",727,"165.csv","","4.700000002980232","resources/trios/L1T4A2.jpg","39","restless",0.5,0.4,0.7,0.743032533017625,"false"
"image-keyboard-response",108,193214,"0.0-3.32-1.32","mlmn9dg7cmbsm27",727,"165.csv","","null","resources/maskTrios/BBA2.jpg","null","",NA,NA,NA,NA,""
"image-keyboard-response",109,194417,"0.0-3.32-2.32","mlmn9dg7cmbsm27",727,"165.csv","","null","resources/images/fishbone.png","null","",NA,NA,NA,NA,""
"image-keyboard-response",110,195081,"0.0-3.33-0.33","mlmn9dg7cmbsm27",727,"165.csv","","661.3000000007451","resources/trios/L2T4A3.jpg","37","restless",0.5,0.4,0.6,0.928142025500903,"false"
"image-keyboard-response",111,195494,"0.0-3.33-1.33","mlmn9dg7cmbsm27",727,"165.csv","","null","resources/maskTrios/L2BB.jpg","null","",NA,NA,NA,NA,""
"image-keyboard-response",112,196702,"0.0-3.33-2.33","mlmn9dg7cmbsm27",727,"165.csv","","null","resources/images/fishbone.png","null","",NA,NA,NA,NA,""
"image-keyboard-response",113,197114,"0.0-3.34-0.34","mlmn9dg7cmbsm27",727,"165.csv","","409.9000000022352","resources/trios/L1T4A3.jpg","38","restless",0.5,0.4,0.6,0.152117801388542,"true"
"image-keyboard-response",114,197526,"0.0-3.34-1.34","mlmn9dg7cmbsm27",727,"165.csv","","null","resources/maskTrios/BT4B.jpg","null","",NA,NA,NA,NA,""
"image-keyboard-response",115,198734,"0.0-3.34-2.34","mlmn9dg7cmbsm27",727,"165.csv","","null","resources/images/coin2.png","null","",NA,NA,NA,NA,""
"image-keyboard-response",116,199268,"0.0-3.35-0.35","mlmn9dg7cmbsm27",727,"165.csv","","531.8999999985099","resources/trios/L1T4A3.jpg","38","restless",0.5,0.4,0.6,0.990819879274175,"false"
"image-keyboard-response",117,199678,"0.0-3.35-1.35","mlmn9dg7cmbsm27",727,"165.csv","","null","resources/maskTrios/BT4B.jpg","null","",NA,NA,NA,NA,""
"image-keyboard-response",118,200886,"0.0-3.35-2.35","mlmn9dg7cmbsm27",727,"165.csv","","null","resources/images/fishbone.png","null","",NA,NA,NA,NA,""
"image-keyboard-response",119,201156,"0.0-3.36-0.36","mlmn9dg7cmbsm27",727,"165.csv","","267.29999999701977","resources/trios/L1T4A3.jpg","37","restless",0.4,0.4,0.6,0.986062086193054,"false"
"image-keyboard-response",120,201566,"0.0-3.36-1.36","mlmn9dg7cmbsm27",727,"165.csv","","null","resources/maskTrios/L1BB.jpg","null","",NA,NA,NA,NA,""
"image-keyboard-response",121,202770,"0.0-3.36-2.36","mlmn9dg7cmbsm27",727,"165.csv","","null","resources/images/fishbone.png","null","",NA,NA,NA,NA,""
"image-keyboard-response",122,202938,"0.0-3.37-0.37","mlmn9dg7cmbsm27",727,"165.csv","","166.10000000149012","resources/trios/L2T4A3.jpg","39","restless",0.4,0.4,0.6,0.186864622368531,"true"
"image-keyboard-response",123,203350,"0.0-3.37-1.37","mlmn9dg7cmbsm27",727,"165.csv","","null","resources/maskTrios/BBA3.jpg","null","",NA,NA,NA,NA,""
"image-keyboard-response",124,204556,"0.0-3.37-2.37","mlmn9dg7cmbsm27",727,"165.csv","","null","resources/images/coin2.png","null","",NA,NA,NA,NA,""
"image-keyboard-response",125,205352,"0.0-3.38-0.38","mlmn9dg7cmbsm27",727,"165.csv","","794.4000000022352","resources/trios/L2T4A2.jpg","39","restless",0.4,0.4,0.6,0.573750656454277,"true"
"image-keyboard-response",126,205765,"0.0-3.38-1.38","mlmn9dg7cmbsm27",727,"165.csv","","null","resources/maskTrios/BBA2.jpg","null","",NA,NA,NA,NA,""
"image-keyboard-response",127,206974,"0.0-3.38-2.38","mlmn9dg7cmbsm27",727,"165.csv","","null","resources/images/coin2.png","null","",NA,NA,NA,NA,""
"image-keyboard-response",128,207895,"0.0-3.39-0.39","mlmn9dg7cmbsm27",727,"165.csv","","918.5999999977648","resources/trios/L2T4A2.jpg","39","restless",0.4,0.4,0.6,0.0433221445144243,"true"
"image-keyboard-response",129,208310,"0.0-3.39-1.39","mlmn9dg7cmbsm27",727,"165.csv","","null","resources/maskTrios/BBA2.jpg","null","",NA,NA,NA,NA,""
"image-keyboard-response",130,209517,"0.0-3.39-2.39","mlmn9dg7cmbsm27",727,"165.csv","","null","resources/images/coin2.png","null","",NA,NA,NA,NA,""
"image-keyboard-response",131,209975,"0.0-3.40-0.40","mlmn9dg7cmbsm27",727,"165.csv","","455.80000000074506","resources/trios/L2T2A2.jpg","39","restless",0.4,0.4,0.6,0.729535819747133,"false"
"image-keyboard-response",132,210389,"0.0-3.40-1.40","mlmn9dg7cmbsm27",727,"165.csv","","null","resources/maskTrios/BBA2.jpg","null","",NA,NA,NA,NA,""
"image-keyboard-response",133,211597,"0.0-3.40-2.40","mlmn9dg7cmbsm27",727,"165.csv","","null","resources/images/fishbone.png","null","",NA,NA,NA,NA,""
"image-keyboard-response",134,212054,"0.0-3.41-0.41","mlmn9dg7cmbsm27",727,"165.csv","","455.3999999985099","resources/trios/L1T2A2.jpg","37","restless",0.4,0.4,0.6,0.802880082310979,"false"
"image-keyboard-response",135,212469,"0.0-3.41-1.41","mlmn9dg7cmbsm27",727,"165.csv","","null","resources/maskTrios/L1BB.jpg","null","",NA,NA,NA,NA,""
"image-keyboard-response",136,213677,"0.0-3.41-2.41","mlmn9dg7cmbsm27",727,"165.csv","","null","resources/images/fishbone.png","null","",NA,NA,NA,NA,""
"image-keyboard-response",137,214924,"0.0-3.42-0.42","mlmn9dg7cmbsm27",727,"165.csv","","1244.300000000745","resources/trios/L1T2A3.jpg","38","restless",0.4,0.4,0.6,0.431239328345086,"false"
"image-keyboard-response",138,215329,"0.0-3.42-1.42","mlmn9dg7cmbsm27",727,"165.csv","","null","resources/maskTrios/BT2B.jpg","null","",NA,NA,NA,NA,""
"image-keyboard-response",139,216541,"0.0-3.42-2.42","mlmn9dg7cmbsm27",727,"165.csv","","null","resources/images/fishbone.png","null","",NA,NA,NA,NA,""
"image-keyboard-response",140,217228,"0.0-3.43-0.43","mlmn9dg7cmbsm27",727,"165.csv","","683.8000000007451","resources/trios/L2T2A3.jpg","39","restless",0.4,0.4,0.6,0.181870911594033,"true"
"image-keyboard-response",141,217637,"0.0-3.43-1.43","mlmn9dg7cmbsm27",727,"165.csv","","null","resources/maskTrios/BBA3.jpg","null","",NA,NA,NA,NA,""
"image-keyboard-response",142,218845,"0.0-3.43-2.43","mlmn9dg7cmbsm27",727,"165.csv","","null","resources/images/coin2.png","null","",NA,NA,NA,NA,""
"image-keyboard-response",143,219201,"0.0-3.44-0.44","mlmn9dg7cmbsm27",727,"165.csv","","352.9000000022352","resources/trios/L2T4A2.jpg","39","restless",0.4,0.4,0.6,0.130564443019207,"true"
"image-keyboard-response",144,219613,"0.0-3.44-1.44","mlmn9dg7cmbsm27",727,"165.csv","","null","resources/maskTrios/BBA2.jpg","null","",NA,NA,NA,NA,""
"image-keyboard-response",145,220821,"0.0-3.44-2.44","mlmn9dg7cmbsm27",727,"165.csv","","null","resources/images/coin2.png","null","",NA,NA,NA,NA,""
"image-keyboard-response",146,221205,"0.0-3.45-0.45","mlmn9dg7cmbsm27",727,"165.csv","","381.1000000014901","resources/trios/L1T4A2.jpg","39","restless",0.3,0.4,0.6,0.900188177483978,"false"
"image-keyboard-response",147,221611,"0.0-3.45-1.45","mlmn9dg7cmbsm27",727,"165.csv","","null","resources/maskTrios/BBA2.jpg","null","",NA,NA,NA,NA,""
"image-keyboard-response",148,222819,"0.0-3.45-2.45","mlmn9dg7cmbsm27",727,"165.csv","","null","resources/images/fishbone.png","null","",NA,NA,NA,NA,""
"image-keyboard-response",149,223134,"0.0-3.46-0.46","mlmn9dg7cmbsm27",727,"165.csv","","312.0999999977648","resources/trios/L1T4A2.jpg","37","restless",0.3,0.4,0.6,0.505936746386416,"false"
"image-keyboard-response",150,223549,"0.0-3.46-1.46","mlmn9dg7cmbsm27",727,"165.csv","","null","resources/maskTrios/L1BB.jpg","null","",NA,NA,NA,NA,""
"image-keyboard-response",151,224757,"0.0-3.46-2.46","mlmn9dg7cmbsm27",727,"165.csv","","null","resources/images/fishbone.png","null","",NA,NA,NA,NA,""
"image-keyboard-response",152,226227,"0.0-3.47-0.47","mlmn9dg7cmbsm27",727,"165.csv","","1467.4000000022352","resources/trios/L1T2A2.jpg","39","restless",0.3,0.4,0.7,0.0945179025854794,"true"
"image-keyboard-response",153,226637,"0.0-3.47-1.47","mlmn9dg7cmbsm27",727,"165.csv","","null","resources/maskTrios/BBA2.jpg","null","",NA,NA,NA,NA,""
"image-keyboard-response",154,227841,"0.0-3.47-2.47","mlmn9dg7cmbsm27",727,"165.csv","","null","resources/images/coin2.png","null","",NA,NA,NA,NA,""
"image-keyboard-response",155,229356,"0.0-3.48-0.48","mlmn9dg7cmbsm27",727,"165.csv","","1512.8999999985099","resources/trios/L1T4A3.jpg","39","restless",0.3,0.4,0.7,0.679793346701995,"true"
"image-keyboard-response",156,229765,"0.0-3.48-1.48","mlmn9dg7cmbsm27",727,"165.csv","","null","resources/maskTrios/BBA3.jpg","null","",NA,NA,NA,NA,""
"image-keyboard-response",157,230973,"0.0-3.48-2.48","mlmn9dg7cmbsm27",727,"165.csv","","null","resources/images/coin2.png","null","",NA,NA,NA,NA,""
"image-keyboard-response",158,231466,"0.0-3.49-0.49","mlmn9dg7cmbsm27",727,"165.csv","","490.30000000074506","resources/trios/L1T2A3.jpg","39","restless",0.3,0.4,0.7,0.380675059979881,"true"
"image-keyboard-response",159,231877,"0.0-3.49-1.49","mlmn9dg7cmbsm27",727,"165.csv","","null","resources/maskTrios/BBA3.jpg","null","",NA,NA,NA,NA,""
"image-keyboard-response",160,233081,"0.0-3.49-2.49","mlmn9dg7cmbsm27",727,"165.csv","","null","resources/images/coin2.png","null","",NA,NA,NA,NA,""
"image-keyboard-response",161,233411,"0.0-3.50-0.50","mlmn9dg7cmbsm27",727,"165.csv","","327.69999999925494","resources/trios/L1T2A3.jpg","39","restless",0.3,0.4,0.7,0.390762930284245,"true"
"image-keyboard-response",162,233821,"0.0-3.50-1.50","mlmn9dg7cmbsm27",727,"165.csv","","null","resources/maskTrios/BBA3.jpg","null","",NA,NA,NA,NA,""
"image-keyboard-response",163,235025,"0.0-3.50-2.50","mlmn9dg7cmbsm27",727,"165.csv","","null","resources/images/coin2.png","null","",NA,NA,NA,NA,""
"image-keyboard-response",164,235280,"0.0-3.51-0.51","mlmn9dg7cmbsm27",727,"165.csv","","252.5","resources/trios/L1T2A2.jpg","39","restless",0.3,0.4,0.8,0.488903660559986,"true"
"image-keyboard-response",165,235690,"0.0-3.51-1.51","mlmn9dg7cmbsm27",727,"165.csv","","null","resources/maskTrios/BBA2.jpg","null","",NA,NA,NA,NA,""
"image-keyboard-response",166,236898,"0.0-3.51-2.51","mlmn9dg7cmbsm27",727,"165.csv","","null","resources/images/coin2.png","null","",NA,NA,NA,NA,""
"image-keyboard-response",167,237104,"0.0-3.52-0.52","mlmn9dg7cmbsm27",727,"165.csv","","203.80000000074506","resources/trios/L2T4A2.jpg","39","restless",0.3,0.4,0.8,0.0322833013969668,"true"
"image-keyboard-response",168,237517,"0.0-3.52-1.52","mlmn9dg7cmbsm27",727,"165.csv","","null","resources/maskTrios/BBA2.jpg","null","",NA,NA,NA,NA,""
"image-keyboard-response",169,238725,"0.0-3.52-2.52","mlmn9dg7cmbsm27",727,"165.csv","","null","resources/images/coin2.png","null","",NA,NA,NA,NA,""
"image-keyboard-response",170,239523,"0.0-3.53-0.53","mlmn9dg7cmbsm27",727,"165.csv","","795.3999999985099","resources/trios/L2T2A3.jpg","39","restless",0.3,0.4,0.8,0.216252164468802,"true"
"image-keyboard-response",171,239928,"0.0-3.53-1.53","mlmn9dg7cmbsm27",727,"165.csv","","null","resources/maskTrios/BBA3.jpg","null","",NA,NA,NA,NA,""
"image-keyboard-response",172,241141,"0.0-3.53-2.53","mlmn9dg7cmbsm27",727,"165.csv","","null","resources/images/coin2.png","null","",NA,NA,NA,NA,""
"image-keyboard-response",173,241631,"0.0-3.54-0.54","mlmn9dg7cmbsm27",727,"165.csv","","488","resources/trios/L2T2A3.jpg","39","restless",0.3,0.5,0.8,0.245305597898333,"true"
"image-keyboard-response",174,242040,"0.0-3.54-1.54","mlmn9dg7cmbsm27",727,"165.csv","","null","resources/maskTrios/BBA3.jpg","null","",NA,NA,NA,NA,""
"image-keyboard-response",175,243253,"0.0-3.54-2.54","mlmn9dg7cmbsm27",727,"165.csv","","null","resources/images/coin2.png","null","",NA,NA,NA,NA,""
"image-keyboard-response",176,243585,"0.0-3.55-0.55","mlmn9dg7cmbsm27",727,"165.csv","","330.6000000014901","resources/trios/L2T2A2.jpg","39","restless",0.3,0.5,0.8,0.884414127585389,"false"
"image-keyboard-response",177,243996,"0.0-3.55-1.55","mlmn9dg7cmbsm27",727,"165.csv","","null","resources/maskTrios/BBA2.jpg","null","",NA,NA,NA,NA,""
"image-keyboard-response",178,245205,"0.0-3.55-2.55","mlmn9dg7cmbsm27",727,"165.csv","","null","resources/images/fishbone.png","null","",NA,NA,NA,NA,""
"image-keyboard-response",179,245551,"0.0-3.56-0.56","mlmn9dg7cmbsm27",727,"165.csv","","344.19999999925494","resources/trios/L1T2A3.jpg","37","restless",0.3,0.5,0.8,0.486728976077171,"false"
"image-keyboard-response",180,245964,"0.0-3.56-1.56","mlmn9dg7cmbsm27",727,"165.csv","","null","resources/maskTrios/L1BB.jpg","null","",NA,NA,NA,NA,""
"image-keyboard-response",181,247170,"0.0-3.56-2.56","mlmn9dg7cmbsm27",727,"165.csv","","null","resources/images/fishbone.png","null","",NA,NA,NA,NA,""
"image-keyboard-response",182,247429,"0.0-3.57-0.57","mlmn9dg7cmbsm27",727,"165.csv","","256.69999999925494","resources/trios/L1T2A2.jpg","38","restless",0.3,0.5,0.8,0.594049424176904,"false"
"image-keyboard-response",183,247844,"0.0-3.57-1.57","mlmn9dg7cmbsm27",727,"165.csv","","null","resources/maskTrios/BT2B.jpg","null","",NA,NA,NA,NA,""
"image-keyboard-response",184,249048,"0.0-3.57-2.57","mlmn9dg7cmbsm27",727,"165.csv","","null","resources/images/fishbone.png","null","",NA,NA,NA,NA,""
"image-keyboard-response",185,249349,"0.0-3.58-0.58","mlmn9dg7cmbsm27",727,"165.csv","","298.5","resources/trios/L1T4A3.jpg","39","restless",0.3,0.5,0.8,0.266654078736789,"true"
"image-keyboard-response",186,249764,"0.0-3.58-1.58","mlmn9dg7cmbsm27",727,"165.csv","","null","resources/maskTrios/BBA3.jpg","null","",NA,NA,NA,NA,""
"image-keyboard-response",187,250969,"0.0-3.58-2.58","mlmn9dg7cmbsm27",727,"165.csv","","null","resources/images/coin2.png","null","",NA,NA,NA,NA,""
"image-keyboard-response",188,251233,"0.0-3.59-0.59","mlmn9dg7cmbsm27",727,"165.csv","","261.6000000014901","resources/trios/L2T2A3.jpg","39","restless",0.3,0.5,0.8,0.00957606351684093,"true"
"image-keyboard-response",189,251644,"0.0-3.59-1.59","mlmn9dg7cmbsm27",727,"165.csv","","null","resources/maskTrios/BBA3.jpg","null","",NA,NA,NA,NA,""
"image-keyboard-response",190,252850,"0.0-3.59-2.59","mlmn9dg7cmbsm27",727,"165.csv","","null","resources/images/coin2.png","null","",NA,NA,NA,NA,""
"image-keyboard-response",191,253212,"0.0-3.60-0.60","mlmn9dg7cmbsm27",727,"165.csv","","359.80000000074506","resources/trios/L2T4A2.jpg","39","restless",0.3,0.5,0.8,0.203821391992278,"true"
"image-keyboard-response",192,253620,"0.0-3.60-1.60","mlmn9dg7cmbsm27",727,"165.csv","","null","resources/maskTrios/BBA2.jpg","null","",NA,NA,NA,NA,""
"image-keyboard-response",193,254828,"0.0-3.60-2.60","mlmn9dg7cmbsm27",727,"165.csv","","null","resources/images/coin2.png","null","",NA,NA,NA,NA,""
"image-keyboard-response",194,255154,"0.0-3.61-0.61","mlmn9dg7cmbsm27",727,"165.csv","","323.5","resources/trios/L1T2A2.jpg","39","restless",0.3,0.5,0.8,0.804722281001667,"false"
"image-keyboard-response",195,255564,"0.0-3.61-1.61","mlmn9dg7cmbsm27",727,"165.csv","","null","resources/maskTrios/BBA2.jpg","null","",NA,NA,NA,NA,""
"image-keyboard-response",196,256772,"0.0-3.61-2.61","mlmn9dg7cmbsm27",727,"165.csv","","null","resources/images/fishbone.png","null","",NA,NA,NA,NA,""
"image-keyboard-response",197,258083,"0.0-3.62-0.62","mlmn9dg7cmbsm27",727,"165.csv","","1308.8999999985099","resources/trios/L2T2A2.jpg","38","restless",0.3,0.5,0.8,0.172744672953297,"true"
"image-keyboard-response",198,258492,"0.0-3.62-1.62","mlmn9dg7cmbsm27",727,"165.csv","","null","resources/maskTrios/BT2B.jpg","null","",NA,NA,NA,NA,""
"image-keyboard-response",199,259700,"0.0-3.62-2.62","mlmn9dg7cmbsm27",727,"165.csv","","null","resources/images/coin2.png","null","",NA,NA,NA,NA,""
"image-keyboard-response",200,259967,"0.0-3.63-0.63","mlmn9dg7cmbsm27",727,"165.csv","","264","resources/trios/L2T2A2.jpg","38","restless",0.3,0.5,0.8,0.881978918547634,"false"
"image-keyboard-response",201,260380,"0.0-3.63-1.63","mlmn9dg7cmbsm27",727,"165.csv","","null","resources/maskTrios/BT2B.jpg","null","",NA,NA,NA,NA,""
"image-keyboard-response",202,261584,"0.0-3.63-2.63","mlmn9dg7cmbsm27",727,"165.csv","","null","resources/images/fishbone.png","null","",NA,NA,NA,NA,""
"image-keyboard-response",203,261958,"0.0-3.64-0.64","mlmn9dg7cmbsm27",727,"165.csv","","371.5999999977648","resources/trios/L1T2A2.jpg","39","restless",0.3,0.5,0.8,0.602438124444796,"true"
"image-keyboard-response",204,262372,"0.0-3.64-1.64","mlmn9dg7cmbsm27",727,"165.csv","","null","resources/maskTrios/BBA2.jpg","null","",NA,NA,NA,NA,""
"image-keyboard-response",205,263580,"0.0-3.64-2.64","mlmn9dg7cmbsm27",727,"165.csv","","null","resources/images/coin2.png","null","",NA,NA,NA,NA,""
"image-keyboard-response",206,263965,"0.0-3.65-0.65","mlmn9dg7cmbsm27",727,"165.csv","","383.1000000014901","resources/trios/L1T4A3.jpg","39","restless",0.3,0.5,0.8,0.248013256048557,"true"
"image-keyboard-response",207,264380,"0.0-3.65-1.65","mlmn9dg7cmbsm27",727,"165.csv","","null","resources/maskTrios/BBA3.jpg","null","",NA,NA,NA,NA,""
"image-keyboard-response",208,265588,"0.0-3.65-2.65","mlmn9dg7cmbsm27",727,"165.csv","","null","resources/images/coin2.png","null","",NA,NA,NA,NA,""
"image-keyboard-response",209,265901,"0.0-3.66-0.66","mlmn9dg7cmbsm27",727,"165.csv","","310.5","resources/trios/L2T2A2.jpg","39","restless",0.3,0.5,0.8,0.912675187922038,"false"
"image-keyboard-response",210,266316,"0.0-3.66-1.66","mlmn9dg7cmbsm27",727,"165.csv","","null","resources/maskTrios/BBA2.jpg","null","",NA,NA,NA,NA,""
"image-keyboard-response",211,267524,"0.0-3.66-2.66","mlmn9dg7cmbsm27",727,"165.csv","","null","resources/images/fishbone.png","null","",NA,NA,NA,NA,""
"image-keyboard-response",212,268395,"0.0-3.67-0.67","mlmn9dg7cmbsm27",727,"165.csv","","868.5","resources/trios/L1T4A3.jpg","38","restless",0.3,0.5,0.8,0.409904339912504,"true"
"image-keyboard-response",213,268804,"0.0-3.67-1.67","mlmn9dg7cmbsm27",727,"165.csv","","null","resources/maskTrios/BT4B.jpg","null","",NA,NA,NA,NA,""
"image-keyboard-response",214,270012,"0.0-3.67-2.67","mlmn9dg7cmbsm27",727,"165.csv","","null","resources/images/coin2.png","null","",NA,NA,NA,NA,""
"image-keyboard-response",215,270301,"0.0-3.68-0.68","mlmn9dg7cmbsm27",727,"165.csv","","286.5","resources/trios/L1T4A2.jpg","37","restless",0.3,0.5,0.8,0.125745441486948,"true"
"image-keyboard-response",216,270716,"0.0-3.68-1.68","mlmn9dg7cmbsm27",727,"165.csv","","null","resources/maskTrios/L1BB.jpg","null","",NA,NA,NA,NA,""
"image-keyboard-response",217,271923,"0.0-3.68-2.68","mlmn9dg7cmbsm27",727,"165.csv","","null","resources/images/coin2.png","null","",NA,NA,NA,NA,""
"image-keyboard-response",218,272166,"0.0-3.69-0.69","mlmn9dg7cmbsm27",727,"165.csv","","241.60000000149012","resources/trios/L1T2A2.jpg","37","restless",0.3,0.5,0.7,0.550812554866087,"false"
"image-keyboard-response",219,272579,"0.0-3.69-1.69","mlmn9dg7cmbsm27",727,"165.csv","","null","resources/maskTrios/L1BB.jpg","null","",NA,NA,NA,NA,""
"image-keyboard-response",220,273784,"0.0-3.69-2.69","mlmn9dg7cmbsm27",727,"165.csv","","null","resources/images/fishbone.png","null","",NA,NA,NA,NA,""
"image-keyboard-response",221,274107,"0.0-3.70-0.70","mlmn9dg7cmbsm27",727,"165.csv","","321.1000000014901","resources/trios/L1T2A2.jpg","39","restless",0.3,0.5,0.7,0.248242799081375,"true"
"image-keyboard-response",222,274516,"0.0-3.70-1.70","mlmn9dg7cmbsm27",727,"165.csv","","null","resources/maskTrios/BBA2.jpg","null","",NA,NA,NA,NA,""
"image-keyboard-response",223,275720,"0.0-3.70-2.70","mlmn9dg7cmbsm27",727,"165.csv","","null","resources/images/coin2.png","null","",NA,NA,NA,NA,""
"image-keyboard-response",224,276008,"0.0-3.71-0.71","mlmn9dg7cmbsm27",727,"165.csv","","285.69999999925494","resources/trios/L1T4A2.jpg","39","restless",0.3,0.6,0.7,0.717767708479665,"false"
"image-keyboard-response",225,276420,"0.0-3.71-1.71","mlmn9dg7cmbsm27",727,"165.csv","","null","resources/maskTrios/BBA2.jpg","null","",NA,NA,NA,NA,""
"image-keyboard-response",226,277624,"0.0-3.71-2.71","mlmn9dg7cmbsm27",727,"165.csv","","null","resources/images/fishbone.png","null","",NA,NA,NA,NA,""
"image-keyboard-response",227,278683,"0.0-3.72-0.72","mlmn9dg7cmbsm27",727,"165.csv","","1056.5","resources/trios/L2T4A2.jpg","38","restless",0.3,0.6,0.7,0.466185597106454,"true"
"image-keyboard-response",228,279091,"0.0-3.72-1.72","mlmn9dg7cmbsm27",727,"165.csv","","null","resources/maskTrios/BT4B.jpg","null","",NA,NA,NA,NA,""
"image-keyboard-response",229,280296,"0.0-3.72-2.72","mlmn9dg7cmbsm27",727,"165.csv","","null","resources/images/coin2.png","null","",NA,NA,NA,NA,""
"image-keyboard-response",230,281488,"0.0-3.73-0.73","mlmn9dg7cmbsm27",727,"165.csv","","1189.3999999985099","resources/trios/L1T2A3.jpg","38","restless",0.4,0.6,0.8,0.205643213114193,"true"
"image-keyboard-response",231,281899,"0.0-3.73-1.73","mlmn9dg7cmbsm27",727,"165.csv","","null","resources/maskTrios/BT2B.jpg","null","",NA,NA,NA,NA,""
"image-keyboard-response",232,283107,"0.0-3.73-2.73","mlmn9dg7cmbsm27",727,"165.csv","","null","resources/images/coin2.png","null","",NA,NA,NA,NA,""
"image-keyboard-response",233,284650,"0.0-3.74-0.74","mlmn9dg7cmbsm27",727,"165.csv","","1540.1000000014901","resources/trios/L1T2A3.jpg","38","restless",0.4,0.6,0.8,0.0900850542063782,"true"
"image-keyboard-response",234,285059,"0.0-3.74-1.74","mlmn9dg7cmbsm27",727,"165.csv","","null","resources/maskTrios/BT2B.jpg","null","",NA,NA,NA,NA,""
"image-keyboard-response",235,286263,"0.0-3.74-2.74","mlmn9dg7cmbsm27",727,"165.csv","","null","resources/images/coin2.png","null","",NA,NA,NA,NA,""
"image-keyboard-response",236,286951,"0.0-3.75-0.75","mlmn9dg7cmbsm27",727,"165.csv","","685.0999999977648","resources/trios/L1T2A2.jpg","38","restless",0.4,0.5,0.8,0.817959176771717,"false"
"image-keyboard-response",237,287363,"0.0-3.75-1.75","mlmn9dg7cmbsm27",727,"165.csv","","null","resources/maskTrios/BT2B.jpg","null","",NA,NA,NA,NA,""
"image-keyboard-response",238,288571,"0.0-3.75-2.75","mlmn9dg7cmbsm27",727,"165.csv","","null","resources/images/fishbone.png","null","",NA,NA,NA,NA,""
"image-keyboard-response",239,288957,"0.0-3.76-0.76","mlmn9dg7cmbsm27",727,"165.csv","","383.6000000014901","resources/trios/L1T4A3.jpg","37","restless",0.4,0.5,0.8,0.296596140827928,"true"
"image-keyboard-response",240,289371,"0.0-3.76-1.76","mlmn9dg7cmbsm27",727,"165.csv","","null","resources/maskTrios/L1BB.jpg","null","",NA,NA,NA,NA,""
"image-keyboard-response",241,290579,"0.0-3.76-2.76","mlmn9dg7cmbsm27",727,"165.csv","","null","resources/images/coin2.png","null","",NA,NA,NA,NA,""
"image-keyboard-response",242,290986,"0.0-3.77-0.77","mlmn9dg7cmbsm27",727,"165.csv","","405.19999999925494","resources/trios/L2T4A3.jpg","37","restless",0.4,0.5,0.8,0.483847008757221,"false"
"image-keyboard-response",243,291395,"0.0-3.77-1.77","mlmn9dg7cmbsm27",727,"165.csv","","null","resources/maskTrios/L2BB.jpg","null","",NA,NA,NA,NA,""
"image-keyboard-response",244,292603,"0.0-3.77-2.77","mlmn9dg7cmbsm27",727,"165.csv","","null","resources/images/fishbone.png","null","",NA,NA,NA,NA,""
"image-keyboard-response",245,293047,"0.0-3.78-0.78","mlmn9dg7cmbsm27",727,"165.csv","","441","resources/trios/L2T2A3.jpg","39","restless",0.4,0.5,0.7,0.139390568676693,"true"
"image-keyboard-response",246,293451,"0.0-3.78-1.78","mlmn9dg7cmbsm27",727,"165.csv","","null","resources/maskTrios/BBA3.jpg","null","",NA,NA,NA,NA,""
"image-keyboard-response",247,294655,"0.0-3.78-2.78","mlmn9dg7cmbsm27",727,"165.csv","","null","resources/images/coin2.png","null","",NA,NA,NA,NA,""
"image-keyboard-response",248,294763,"0.0-3.79-0.79","mlmn9dg7cmbsm27",727,"165.csv","","105.39999999850988","resources/trios/L2T2A2.jpg","39","restless",0.4,0.5,0.7,0.893488462617104,"false"
"image-keyboard-response",249,295167,"0.0-3.79-1.79","mlmn9dg7cmbsm27",727,"165.csv","","null","resources/maskTrios/BBA2.jpg","null","",NA,NA,NA,NA,""
"image-keyboard-response",250,296379,"0.0-3.79-2.79","mlmn9dg7cmbsm27",727,"165.csv","","null","resources/images/fishbone.png","null","",NA,NA,NA,NA,""
"image-keyboard-response",251,296756,"0.0-3.80-0.80","mlmn9dg7cmbsm27",727,"165.csv","","375","resources/trios/L1T4A2.jpg","38","restless",0.4,0.5,0.7,0.716232206537274,"false"
"image-keyboard-response",252,297171,"0.0-3.80-1.80","mlmn9dg7cmbsm27",727,"165.csv","","null","resources/maskTrios/BT4B.jpg","null","",NA,NA,NA,NA,""
"image-keyboard-response",253,298379,"0.0-3.80-2.80","mlmn9dg7cmbsm27",727,"165.csv","","null","resources/images/fishbone.png","null","",NA,NA,NA,NA,""
"image-keyboard-response",254,298388,"0.0-3.81-0.81","mlmn9dg7cmbsm27",727,"165.csv","","7.099999997764826","resources/trios/L1T4A3.jpg","37","restless",0.4,0.5,0.7,0.0416114306376485,"true"
"image-keyboard-response",255,298795,"0.0-3.81-1.81","mlmn9dg7cmbsm27",727,"165.csv","","null","resources/maskTrios/L1BB.jpg","null","",NA,NA,NA,NA,""
"image-keyboard-response",256,300003,"0.0-3.81-2.81","mlmn9dg7cmbsm27",727,"165.csv","","null","resources/images/coin2.png","null","",NA,NA,NA,NA,""
"image-keyboard-response",257,300271,"0.0-3.82-0.82","mlmn9dg7cmbsm27",727,"165.csv","","266","resources/trios/L1T4A2.jpg","37","restless",0.4,0.5,0.7,0.910110179328521,"false"
"image-keyboard-response",258,300683,"0.0-3.82-1.82","mlmn9dg7cmbsm27",727,"165.csv","","null","resources/maskTrios/L1BB.jpg","null","",NA,NA,NA,NA,""
"image-keyboard-response",259,301891,"0.0-3.82-2.82","mlmn9dg7cmbsm27",727,"165.csv","","null","resources/images/fishbone.png","null","",NA,NA,NA,NA,""
"image-keyboard-response",260,302254,"0.0-3.83-0.83","mlmn9dg7cmbsm27",727,"165.csv","","361.0999999977648","resources/trios/L1T4A2.jpg","39","restless",0.4,0.5,0.7,0.419599761504457,"true"
"image-keyboard-response",261,302667,"0.0-3.83-1.83","mlmn9dg7cmbsm27",727,"165.csv","","null","resources/maskTrios/BBA2.jpg","null","",NA,NA,NA,NA,""
"image-keyboard-response",262,303871,"0.0-3.83-2.83","mlmn9dg7cmbsm27",727,"165.csv","","null","resources/images/coin2.png","null","",NA,NA,NA,NA,""
"image-keyboard-response",263,304204,"0.0-3.84-0.84","mlmn9dg7cmbsm27",727,"165.csv","","330.3999999985099","resources/trios/L1T4A3.jpg","39","restless",0.4,0.5,0.6,0.872797476101585,"false"
"image-keyboard-response",264,304616,"0.0-3.84-1.84","mlmn9dg7cmbsm27",727,"165.csv","","null","resources/maskTrios/BBA3.jpg","null","",NA,NA,NA,NA,""
"image-keyboard-response",265,305827,"0.0-3.84-2.84","mlmn9dg7cmbsm27",727,"165.csv","","null","resources/images/fishbone.png","null","",NA,NA,NA,NA,""
"image-keyboard-response",266,306807,"0.0-3.85-0.85","mlmn9dg7cmbsm27",727,"165.csv","","978.1999999992549","resources/trios/L1T2A3.jpg","38","restless",0.4,0.5,0.6,0.364561502869424,"true"
"image-keyboard-response",267,307219,"0.0-3.85-1.85","mlmn9dg7cmbsm27",727,"165.csv","","null","resources/maskTrios/BT2B.jpg","null","",NA,NA,NA,NA,""
"image-keyboard-response",268,308427,"0.0-3.85-2.85","mlmn9dg7cmbsm27",727,"165.csv","","null","resources/images/coin2.png","null","",NA,NA,NA,NA,""
"image-keyboard-response",269,308705,"0.0-3.86-0.86","mlmn9dg7cmbsm27",727,"165.csv","","275.4000000022352","resources/trios/L2T2A3.jpg","38","restless",0.4,0.4,0.6,0.873260981304623,"false"
"image-keyboard-response",270,309110,"0.0-3.86-1.86","mlmn9dg7cmbsm27",727,"165.csv","","null","resources/maskTrios/BT2B.jpg","null","",NA,NA,NA,NA,""
"image-keyboard-response",271,310320,"0.0-3.86-2.86","mlmn9dg7cmbsm27",727,"165.csv","","null","resources/images/fishbone.png","null","",NA,NA,NA,NA,""
"image-keyboard-response",272,310977,"0.0-3.87-0.87","mlmn9dg7cmbsm27",727,"165.csv","","654.6999999992549","resources/trios/L2T4A3.jpg","37","restless",0.4,0.4,0.6,0.535911864850362,"false"
"image-keyboard-response",273,311387,"0.0-3.87-1.87","mlmn9dg7cmbsm27",727,"165.csv","","null","resources/maskTrios/L2BB.jpg","null","",NA,NA,NA,NA,""
"image-keyboard-response",274,312594,"0.0-3.87-2.87","mlmn9dg7cmbsm27",727,"165.csv","","null","resources/images/fishbone.png","null","",NA,NA,NA,NA,""
"image-keyboard-response",275,313272,"0.0-3.88-0.88","mlmn9dg7cmbsm27",727,"165.csv","","675.2999999970198","resources/trios/L1T4A2.jpg","39","restless",0.4,0.4,0.6,0.386351057823962,"true"
"image-keyboard-response",276,313682,"0.0-3.88-1.88","mlmn9dg7cmbsm27",727,"165.csv","","null","resources/maskTrios/BBA2.jpg","null","",NA,NA,NA,NA,""
"image-keyboard-response",277,314890,"0.0-3.88-2.88","mlmn9dg7cmbsm27",727,"165.csv","","null","resources/images/coin2.png","null","",NA,NA,NA,NA,""
"image-keyboard-response",278,315176,"0.0-3.89-0.89","mlmn9dg7cmbsm27",727,"165.csv","","283.30000000074506","resources/trios/L2T4A3.jpg","39","restless",0.4,0.4,0.6,0.492281529859979,"true"
"image-keyboard-response",279,315586,"0.0-3.89-1.89","mlmn9dg7cmbsm27",727,"165.csv","","null","resources/maskTrios/BBA3.jpg","null","",NA,NA,NA,NA,""
"image-keyboard-response",280,316790,"0.0-3.89-2.89","mlmn9dg7cmbsm27",727,"165.csv","","null","resources/images/coin2.png","null","",NA,NA,NA,NA,""
"image-keyboard-response",281,317050,"0.0-3.90-0.90","mlmn9dg7cmbsm27",727,"165.csv","","257.29999999701977","resources/trios/L1T2A2.jpg","39","restless",0.4,0.4,0.6,0.580928539319602,"true"
"image-keyboard-response",282,317458,"0.0-3.90-1.90","mlmn9dg7cmbsm27",727,"165.csv","","null","resources/maskTrios/BBA2.jpg","null","",NA,NA,NA,NA,""
"image-keyboard-response",283,318666,"0.0-3.90-2.90","mlmn9dg7cmbsm27",727,"165.csv","","null","resources/images/coin2.png","null","",NA,NA,NA,NA,""
"image-keyboard-response",284,318912,"0.0-3.91-0.91","mlmn9dg7cmbsm27",727,"165.csv","","243","resources/trios/L1T2A3.jpg","39","restless",0.4,0.3,0.5,0.0608494940442819,"true"
"image-keyboard-response",285,319322,"0.0-3.91-1.91","mlmn9dg7cmbsm27",727,"165.csv","","null","resources/maskTrios/BBA3.jpg","null","",NA,NA,NA,NA,""
"image-keyboard-response",286,320530,"0.0-3.91-2.91","mlmn9dg7cmbsm27",727,"165.csv","","null","resources/images/coin2.png","null","",NA,NA,NA,NA,""
"image-keyboard-response",287,320796,"0.0-3.92-0.92","mlmn9dg7cmbsm27",727,"165.csv","","263.30000000074506","resources/trios/L1T4A3.jpg","39","restless",0.5,0.3,0.5,0.932058656317338,"false"
"image-keyboard-response",288,321210,"0.0-3.92-1.92","mlmn9dg7cmbsm27",727,"165.csv","","null","resources/maskTrios/BBA3.jpg","null","",NA,NA,NA,NA,""
"image-keyboard-response",289,322418,"0.0-3.92-2.92","mlmn9dg7cmbsm27",727,"165.csv","","null","resources/images/fishbone.png","null","",NA,NA,NA,NA,""
"image-keyboard-response",290,322734,"0.0-3.93-0.93","mlmn9dg7cmbsm27",727,"165.csv","","313.5","resources/trios/L2T4A2.jpg","38","restless",0.5,0.3,0.5,0.28405097729023,"true"
"image-keyboard-response",291,323146,"0.0-3.93-1.93","mlmn9dg7cmbsm27",727,"165.csv","","null","resources/maskTrios/BT4B.jpg","null","",NA,NA,NA,NA,""
"image-keyboard-response",292,324350,"0.0-3.93-2.93","mlmn9dg7cmbsm27",727,"165.csv","","null","resources/images/coin2.png","null","",NA,NA,NA,NA,""
"image-keyboard-response",293,325557,"0.0-3.94-0.94","mlmn9dg7cmbsm27",727,"165.csv","","1204.3999999985099","resources/trios/L2T2A3.jpg","38","restless",0.5,0.2,0.5,0.59355035963701,"false"
"image-keyboard-response",294,325966,"0.0-3.94-1.94","mlmn9dg7cmbsm27",727,"165.csv","","null","resources/maskTrios/BT2B.jpg","null","",NA,NA,NA,NA,""
"image-keyboard-response",295,327178,"0.0-3.94-2.94","mlmn9dg7cmbsm27",727,"165.csv","","null","resources/images/fishbone.png","null","",NA,NA,NA,NA,""
"image-keyboard-response",296,327573,"0.0-3.95-0.95","mlmn9dg7cmbsm27",727,"165.csv","","392.4000000022352","resources/trios/L1T4A3.jpg","37","restless",0.6,0.2,0.5,0.111762503425265,"true"
"image-keyboard-response",297,327986,"0.0-3.95-1.95","mlmn9dg7cmbsm27",727,"165.csv","","null","resources/maskTrios/L1BB.jpg","null","",NA,NA,NA,NA,""
"image-keyboard-response",298,329194,"0.0-3.95-2.95","mlmn9dg7cmbsm27",727,"165.csv","","null","resources/images/coin2.png","null","",NA,NA,NA,NA,""
"image-keyboard-response",299,330097,"0.0-3.96-0.96","mlmn9dg7cmbsm27",727,"165.csv","","900.1999999992549","resources/trios/L2T2A3.jpg","37","restless",0.6,0.2,0.5,0.564380049994628,"true"
"image-keyboard-response",300,330506,"0.0-3.96-1.96","mlmn9dg7cmbsm27",727,"165.csv","","null","resources/maskTrios/L2BB.jpg","null","",NA,NA,NA,NA,""
"image-keyboard-response",301,331714,"0.0-3.96-2.96","mlmn9dg7cmbsm27",727,"165.csv","","null","resources/images/coin2.png","null","",NA,NA,NA,NA,""
"image-keyboard-response",302,332185,"0.0-3.97-0.97","mlmn9dg7cmbsm27",727,"165.csv","","468.4000000022352","resources/trios/L1T4A3.jpg","37","restless",0.6,0.2,0.4,0.363850897867121,"true"
"image-keyboard-response",303,332594,"0.0-3.97-1.97","mlmn9dg7cmbsm27",727,"165.csv","","null","resources/maskTrios/L1BB.jpg","null","",NA,NA,NA,NA,""
"image-keyboard-response",304,333798,"0.0-3.97-2.97","mlmn9dg7cmbsm27",727,"165.csv","","null","resources/images/coin2.png","null","",NA,NA,NA,NA,""
"image-keyboard-response",305,334177,"0.0-3.98-0.98","mlmn9dg7cmbsm27",727,"165.csv","","377.4000000022352","resources/trios/L1T2A2.jpg","37","restless",0.6,0.2,0.4,0.76315887341692,"false"
"image-keyboard-response",306,334586,"0.0-3.98-1.98","mlmn9dg7cmbsm27",727,"165.csv","","null","resources/maskTrios/L1BB.jpg","null","",NA,NA,NA,NA,""
"image-keyboard-response",307,335794,"0.0-3.98-2.98","mlmn9dg7cmbsm27",727,"165.csv","","null","resources/images/fishbone.png","null","",NA,NA,NA,NA,""
"image-keyboard-response",308,336284,"0.0-3.99-0.99","mlmn9dg7cmbsm27",727,"165.csv","","487.5","resources/trios/L1T2A3.jpg","39","restless",0.5,0.2,0.4,0.389861670830751,"true"
"image-keyboard-response",309,336698,"0.0-3.99-1.99","mlmn9dg7cmbsm27",727,"165.csv","","null","resources/maskTrios/BBA3.jpg","null","",NA,NA,NA,NA,""
"image-keyboard-response",310,337906,"0.0-3.99-2.99","mlmn9dg7cmbsm27",727,"165.csv","","null","resources/images/coin2.png","null","",NA,NA,NA,NA,""
"image-keyboard-response",311,338426,"0.0-3.100-0.100","mlmn9dg7cmbsm27",727,"165.csv","","517.3000000007451","resources/trios/L2T2A2.jpg","39","restless",0.5,0.2,0.4,0.0937574876426095,"true"
"image-keyboard-response",312,338833,"0.0-3.100-1.100","mlmn9dg7cmbsm27",727,"165.csv","","null","resources/maskTrios/BBA2.jpg","null","",NA,NA,NA,NA,""
"image-keyboard-response",313,340041,"0.0-3.100-2.100","mlmn9dg7cmbsm27",727,"165.csv","","null","resources/images/coin2.png","null","",NA,NA,NA,NA,""
"image-keyboard-response",314,340685,"0.0-3.101-0.101","mlmn9dg7cmbsm27",727,"165.csv","","642.1000000014901","resources/trios/L1T2A2.jpg","39","restless",0.4,0.2,0.4,0.677204682718114,"false"
"image-keyboard-response",315,341093,"0.0-3.101-1.101","mlmn9dg7cmbsm27",727,"165.csv","","null","resources/maskTrios/BBA2.jpg","null","",NA,NA,NA,NA,""
"image-keyboard-response",316,342305,"0.0-3.101-2.101","mlmn9dg7cmbsm27",727,"165.csv","","null","resources/images/fishbone.png","null","",NA,NA,NA,NA,""
"image-keyboard-response",317,342849,"0.0-3.102-0.102","mlmn9dg7cmbsm27",727,"165.csv","","541.9000000022352","resources/trios/L2T4A2.jpg","39","restless",0.4,0.3,0.4,0.461519029704309,"false"
"image-keyboard-response",318,343257,"0.0-3.102-1.102","mlmn9dg7cmbsm27",727,"165.csv","","null","resources/maskTrios/BBA2.jpg","null","",NA,NA,NA,NA,""
"image-keyboard-response",319,344465,"0.0-3.102-2.102","mlmn9dg7cmbsm27",727,"165.csv","","null","resources/images/fishbone.png","null","",NA,NA,NA,NA,""
"image-keyboard-response",320,344837,"0.0-3.103-0.103","mlmn9dg7cmbsm27",727,"165.csv","","370.19999999925494","resources/trios/L2T2A2.jpg","38","restless",0.4,0.3,0.4,0.600352319702443,"false"
"image-keyboard-response",321,345249,"0.0-3.103-1.103","mlmn9dg7cmbsm27",727,"165.csv","","null","resources/maskTrios/BT2B.jpg","null","",NA,NA,NA,NA,""
"image-keyboard-response",322,346457,"0.0-3.103-2.103","mlmn9dg7cmbsm27",727,"165.csv","","null","resources/images/fishbone.png","null","",NA,NA,NA,NA,""
"image-keyboard-response",323,346533,"0.0-3.104-0.104","mlmn9dg7cmbsm27",727,"165.csv","","74.39999999850988","resources/trios/L1T4A3.jpg","37","restless",0.5,0.3,0.4,0.216637725528788,"true"
"image-keyboard-response",324,346945,"0.0-3.104-1.104","mlmn9dg7cmbsm27",727,"165.csv","","null","resources/maskTrios/L1BB.jpg","null","",NA,NA,NA,NA,""
"image-keyboard-response",325,348153,"0.0-3.104-2.104","mlmn9dg7cmbsm27",727,"165.csv","","null","resources/images/coin2.png","null","",NA,NA,NA,NA,""
"image-keyboard-response",326,348481,"0.0-3.105-0.105","mlmn9dg7cmbsm27",727,"165.csv","","326.30000000074506","resources/trios/L1T4A3.jpg","37","restless",0.5,0.3,0.4,0.725493527840634,"false"
"image-keyboard-response",327,348889,"0.0-3.105-1.105","mlmn9dg7cmbsm27",727,"165.csv","","null","resources/maskTrios/L1BB.jpg","null","",NA,NA,NA,NA,""
"image-keyboard-response",328,350097,"0.0-3.105-2.105","mlmn9dg7cmbsm27",727,"165.csv","","null","resources/images/fishbone.png","null","",NA,NA,NA,NA,""
"image-keyboard-response",329,350515,"0.0-3.106-0.106","mlmn9dg7cmbsm27",727,"165.csv","","416.30000000074506","resources/trios/L1T4A2.jpg","39","restless",0.5,0.3,0.4,0.581182513694629,"false"
"image-keyboard-response",330,350929,"0.0-3.106-1.106","mlmn9dg7cmbsm27",727,"165.csv","","null","resources/maskTrios/BBA2.jpg","null","",NA,NA,NA,NA,""
"image-keyboard-response",331,352135,"0.0-3.106-2.106","mlmn9dg7cmbsm27",727,"165.csv","","null","resources/images/fishbone.png","null","",NA,NA,NA,NA,""
"image-keyboard-response",332,354450,"0.0-3.107-0.107","mlmn9dg7cmbsm27",727,"165.csv","","2312.5","resources/trios/L2T4A2.jpg","38","restless",0.5,0.4,0.3,0.880007814063919,"false"
"image-keyboard-response",333,354865,"0.0-3.107-1.107","mlmn9dg7cmbsm27",727,"165.csv","","null","resources/maskTrios/BT4B.jpg","null","",NA,NA,NA,NA,""
"image-keyboard-response",334,356073,"0.0-3.107-2.107","mlmn9dg7cmbsm27",727,"165.csv","","null","resources/images/fishbone.png","null","",NA,NA,NA,NA,""
"image-keyboard-response",335,356425,"0.0-3.108-0.108","mlmn9dg7cmbsm27",727,"165.csv","","350.6000000014901","resources/trios/L1T2A3.jpg","37","restless",0.5,0.5,0.3,0.693035644861043,"false"
"image-keyboard-response",336,356833,"0.0-3.108-1.108","mlmn9dg7cmbsm27",727,"165.csv","","null","resources/maskTrios/L1BB.jpg","null","",NA,NA,NA,NA,""
"image-keyboard-response",337,358041,"0.0-3.108-2.108","mlmn9dg7cmbsm27",727,"165.csv","","null","resources/images/fishbone.png","null","",NA,NA,NA,NA,""
"image-keyboard-response",338,358160,"0.0-3.109-0.109","mlmn9dg7cmbsm27",727,"165.csv","","117.19999999925494","resources/trios/L1T2A2.jpg","39","restless",0.5,0.5,0.3,0.845003648426637,"false"
"image-keyboard-response",339,358569,"0.0-3.109-1.109","mlmn9dg7cmbsm27",727,"165.csv","","null","resources/maskTrios/BBA2.jpg","null","",NA,NA,NA,NA,""
"image-keyboard-response",340,359774,"0.0-3.109-2.109","mlmn9dg7cmbsm27",727,"165.csv","","null","resources/images/fishbone.png","null","",NA,NA,NA,NA,""
"image-keyboard-response",341,361624,"0.0-3.110-0.110","mlmn9dg7cmbsm27",727,"165.csv","","1848.199999999255","resources/trios/L1T4A2.jpg","38","restless",0.5,0.5,0.3,0.274173010997513,"true"
"image-keyboard-response",342,362028,"0.0-3.110-1.110","mlmn9dg7cmbsm27",727,"165.csv","","null","resources/maskTrios/BT4B.jpg","null","",NA,NA,NA,NA,""
"image-keyboard-response",343,363240,"0.0-3.110-2.110","mlmn9dg7cmbsm27",727,"165.csv","","null","resources/images/coin2.png","null","",NA,NA,NA,NA,""
"image-keyboard-response",344,364476,"0.0-3.111-0.111","mlmn9dg7cmbsm27",727,"165.csv","","1233.800000000745","resources/trios/L1T4A2.jpg","38","restless",0.5,0.5,0.3,0.568011130043049,"false"
"image-keyboard-response",345,364888,"0.0-3.111-1.111","mlmn9dg7cmbsm27",727,"165.csv","","null","resources/maskTrios/BT4B.jpg","null","",NA,NA,NA,NA,""
"image-keyboard-response",346,366095,"0.0-3.111-2.111","mlmn9dg7cmbsm27",727,"165.csv","","null","resources/images/fishbone.png","null","",NA,NA,NA,NA,""
"image-keyboard-response",347,366556,"0.0-3.112-0.112","mlmn9dg7cmbsm27",727,"165.csv","","459","resources/trios/L1T2A3.jpg","37","restless",0.4,0.4,0.3,0.494403361462511,"false"
"image-keyboard-response",348,366968,"0.0-3.112-1.112","mlmn9dg7cmbsm27",727,"165.csv","","null","resources/maskTrios/L1BB.jpg","null","",NA,NA,NA,NA,""
"image-keyboard-response",349,368176,"0.0-3.112-2.112","mlmn9dg7cmbsm27",727,"165.csv","","null","resources/images/fishbone.png","null","",NA,NA,NA,NA,""
"image-keyboard-response",350,368598,"0.0-3.113-0.113","mlmn9dg7cmbsm27",727,"165.csv","","419.5","resources/trios/L2T4A3.jpg","39","restless",0.3,0.4,0.3,0.358188140615368,"false"
"image-keyboard-response",351,369008,"0.0-3.113-1.113","mlmn9dg7cmbsm27",727,"165.csv","","null","resources/maskTrios/BBA3.jpg","null","",NA,NA,NA,NA,""
"image-keyboard-response",352,370216,"0.0-3.113-2.113","mlmn9dg7cmbsm27",727,"165.csv","","null","resources/images/fishbone.png","null","",NA,NA,NA,NA,""
"image-keyboard-response",353,370536,"0.0-3.114-0.114","mlmn9dg7cmbsm27",727,"165.csv","","317.80000000074506","resources/trios/L1T4A2.jpg","37","restless",0.3,0.4,0.3,0.892530183691085,"false"
"image-keyboard-response",354,370940,"0.0-3.114-1.114","mlmn9dg7cmbsm27",727,"165.csv","","null","resources/maskTrios/L1BB.jpg","null","",NA,NA,NA,NA,""
"image-keyboard-response",355,372152,"0.0-3.114-2.114","mlmn9dg7cmbsm27",727,"165.csv","","null","resources/images/fishbone.png","null","",NA,NA,NA,NA,""
"image-keyboard-response",356,373450,"0.0-3.115-0.115","mlmn9dg7cmbsm27",727,"165.csv","","1296.0999999977648","resources/trios/L1T4A3.jpg","38","restless",0.4,0.4,0.3,0.00430092022040207,"true"
"image-keyboard-response",357,373860,"0.0-3.115-1.115","mlmn9dg7cmbsm27",727,"165.csv","","null","resources/maskTrios/BT4B.jpg","null","",NA,NA,NA,NA,""
"image-keyboard-response",358,375072,"0.0-3.115-2.115","mlmn9dg7cmbsm27",727,"165.csv","","null","resources/images/coin2.png","null","",NA,NA,NA,NA,""
"image-keyboard-response",359,375877,"0.0-3.116-0.116","mlmn9dg7cmbsm27",727,"165.csv","","802.3999999985099","resources/trios/L1T2A2.jpg","38","restless",0.3,0.4,0.3,0.108995657318485,"true"
"image-keyboard-response",360,376284,"0.0-3.116-1.116","mlmn9dg7cmbsm27",727,"165.csv","","null","resources/maskTrios/BT2B.jpg","null","",NA,NA,NA,NA,""
"image-keyboard-response",361,377496,"0.0-3.116-2.116","mlmn9dg7cmbsm27",727,"165.csv","","null","resources/images/coin2.png","null","",NA,NA,NA,NA,""
"image-keyboard-response",362,377666,"0.0-3.117-0.117","mlmn9dg7cmbsm27",727,"165.csv","","167.5","resources/trios/L2T4A3.jpg","38","restless",0.3,0.4,0.3,0.603137761938465,"false"
"image-keyboard-response",363,378080,"0.0-3.117-1.117","mlmn9dg7cmbsm27",727,"165.csv","","null","resources/maskTrios/BT4B.jpg","null","",NA,NA,NA,NA,""
"image-keyboard-response",364,379284,"0.0-3.117-2.117","mlmn9dg7cmbsm27",727,"165.csv","","null","resources/images/fishbone.png","null","",NA,NA,NA,NA,""
"image-keyboard-response",365,379701,"0.0-3.118-0.118","mlmn9dg7cmbsm27",727,"165.csv","","414.5999999977648","resources/trios/L1T2A3.jpg","39","restless",0.3,0.4,0.3,0.196689685948203,"true"
"image-keyboard-response",366,380112,"0.0-3.118-1.118","mlmn9dg7cmbsm27",727,"165.csv","","null","resources/maskTrios/BBA3.jpg","null","",NA,NA,NA,NA,""
"image-keyboard-response",367,381316,"0.0-3.118-2.118","mlmn9dg7cmbsm27",727,"165.csv","","null","resources/images/coin2.png","null","",NA,NA,NA,NA,""
"image-keyboard-response",368,381634,"0.0-3.119-0.119","mlmn9dg7cmbsm27",727,"165.csv","","316.19999999925494","resources/trios/L2T2A2.jpg","39","restless",0.3,0.4,0.3,0.750474607775848,"false"
"image-keyboard-response",369,382048,"0.0-3.119-1.119","mlmn9dg7cmbsm27",727,"165.csv","","null","resources/maskTrios/BBA2.jpg","null","",NA,NA,NA,NA,""
"image-keyboard-response",370,383256,"0.0-3.119-2.119","mlmn9dg7cmbsm27",727,"165.csv","","null","resources/images/fishbone.png","null","",NA,NA,NA,NA,""
"image-keyboard-response",371,383580,"0.0-3.120-0.120","mlmn9dg7cmbsm27",727,"165.csv","","321.5999999977648","resources/trios/L2T2A2.jpg","37","restless",0.4,0.4,0.3,0.639188144938529,"false"
"image-keyboard-response",372,383988,"0.0-3.120-1.120","mlmn9dg7cmbsm27",727,"165.csv","","null","resources/maskTrios/L2BB.jpg","null","",NA,NA,NA,NA,""
"image-keyboard-response",373,385197,"0.0-3.120-2.120","mlmn9dg7cmbsm27",727,"165.csv","","null","resources/images/fishbone.png","null","",NA,NA,NA,NA,""
"image-keyboard-response",374,386813,"0.0-3.121-0.121","mlmn9dg7cmbsm27",727,"165.csv","","1614.199999999255","resources/trios/L2T4A2.jpg","38","restless",0.4,0.4,0.3,0.43011906198381,"false"
"image-keyboard-response",375,387224,"0.0-3.121-1.121","mlmn9dg7cmbsm27",727,"165.csv","","null","resources/maskTrios/BT4B.jpg","null","",NA,NA,NA,NA,""
"image-keyboard-response",376,388432,"0.0-3.121-2.121","mlmn9dg7cmbsm27",727,"165.csv","","null","resources/images/fishbone.png","null","",NA,NA,NA,NA,""
"image-keyboard-response",377,388817,"0.0-3.122-0.122","mlmn9dg7cmbsm27",727,"165.csv","","383","resources/trios/L2T2A3.jpg","39","restless",0.4,0.4,0.3,0.94488467176946,"false"
"image-keyboard-response",378,389232,"0.0-3.122-1.122","mlmn9dg7cmbsm27",727,"165.csv","","null","resources/maskTrios/BBA3.jpg","null","",NA,NA,NA,NA,""
"image-keyboard-response",379,390440,"0.0-3.122-2.122","mlmn9dg7cmbsm27",727,"165.csv","","null","resources/images/fishbone.png","null","",NA,NA,NA,NA,""
"image-keyboard-response",380,391157,"0.0-3.123-0.123","mlmn9dg7cmbsm27",727,"165.csv","","715.1000000014901","resources/trios/L1T4A3.jpg","38","restless",0.4,0.4,0.3,0.0701306720626198,"true"
"image-keyboard-response",381,391568,"0.0-3.123-1.123","mlmn9dg7cmbsm27",727,"165.csv","","null","resources/maskTrios/BT4B.jpg","null","",NA,NA,NA,NA,""
"image-keyboard-response",382,392776,"0.0-3.123-2.123","mlmn9dg7cmbsm27",727,"165.csv","","null","resources/images/coin2.png","null","",NA,NA,NA,NA,""
"image-keyboard-response",383,393202,"0.0-3.124-0.124","mlmn9dg7cmbsm27",727,"165.csv","","424","resources/trios/L1T2A2.jpg","38","restless",0.4,0.4,0.3,0.29728942788354,"true"
"image-keyboard-response",384,393616,"0.0-3.124-1.124","mlmn9dg7cmbsm27",727,"165.csv","","null","resources/maskTrios/BT2B.jpg","null","",NA,NA,NA,NA,""
"image-keyboard-response",385,394824,"0.0-3.124-2.124","mlmn9dg7cmbsm27",727,"165.csv","","null","resources/images/coin2.png","null","",NA,NA,NA,NA,""
"image-keyboard-response",386,395177,"0.0-3.125-0.125","mlmn9dg7cmbsm27",727,"165.csv","","351.19999999925494","resources/trios/L1T2A2.jpg","38","restless",0.4,0.4,0.3,0.430035953324957,"false"
"image-keyboard-response",387,395588,"0.0-3.125-1.125","mlmn9dg7cmbsm27",727,"165.csv","","null","resources/maskTrios/BT2B.jpg","null","",NA,NA,NA,NA,""
"image-keyboard-response",388,396800,"0.0-3.125-2.125","mlmn9dg7cmbsm27",727,"165.csv","","null","resources/images/fishbone.png","null","",NA,NA,NA,NA,""
"image-keyboard-response",389,397130,"0.0-3.126-0.126","mlmn9dg7cmbsm27",727,"165.csv","","328.79999999701977","resources/trios/L2T4A3.jpg","37","restless",0.4,0.4,0.3,0.703122384100381,"false"
"image-keyboard-response",390,397543,"0.0-3.126-1.126","mlmn9dg7cmbsm27",727,"165.csv","","null","resources/maskTrios/L2BB.jpg","null","",NA,NA,NA,NA,""
"image-keyboard-response",391,398751,"0.0-3.126-2.126","mlmn9dg7cmbsm27",727,"165.csv","","null","resources/images/fishbone.png","null","",NA,NA,NA,NA,""
"image-keyboard-response",392,399114,"0.0-3.127-0.127","mlmn9dg7cmbsm27",727,"165.csv","","360.5999999977648","resources/trios/L1T4A3.jpg","39","restless",0.4,0.4,0.3,0.870637321834015,"false"
"image-keyboard-response",393,399527,"0.0-3.127-1.127","mlmn9dg7cmbsm27",727,"165.csv","","null","resources/maskTrios/BBA3.jpg","null","",NA,NA,NA,NA,""
"image-keyboard-response",394,400733,"0.0-3.127-2.127","mlmn9dg7cmbsm27",727,"165.csv","","null","resources/images/fishbone.png","null","",NA,NA,NA,NA,""
"image-keyboard-response",395,401962,"0.0-3.128-0.128","mlmn9dg7cmbsm27",727,"165.csv","","1227","resources/trios/L2T4A2.jpg","38","restless",0.4,0.4,0.3,0.516648855680041,"false"
"image-keyboard-response",396,402375,"0.0-3.128-1.128","mlmn9dg7cmbsm27",727,"165.csv","","null","resources/maskTrios/BT4B.jpg","null","",NA,NA,NA,NA,""
"image-keyboard-response",397,403583,"0.0-3.128-2.128","mlmn9dg7cmbsm27",727,"165.csv","","null","resources/images/fishbone.png","null","",NA,NA,NA,NA,""
"image-keyboard-response",398,405265,"0.0-3.129-0.129","mlmn9dg7cmbsm27",727,"165.csv","","1679.4000000022352","resources/trios/L2T4A2.jpg","38","restless",0.4,0.4,0.3,0.0556396823370906,"true"
"image-keyboard-response",399,405679,"0.0-3.129-1.129","mlmn9dg7cmbsm27",727,"165.csv","","null","resources/maskTrios/BT4B.jpg","null","",NA,NA,NA,NA,""
"image-keyboard-response",400,406883,"0.0-3.129-2.129","mlmn9dg7cmbsm27",727,"165.csv","","null","resources/images/coin2.png","null","",NA,NA,NA,NA,""
"image-keyboard-response",401,407673,"0.0-3.130-0.130","mlmn9dg7cmbsm27",727,"165.csv","","787.8000000007451","resources/trios/L2T4A3.jpg","38","restless",0.4,0.4,0.3,0.210122457939952,"true"
"image-keyboard-response",402,408087,"0.0-3.130-1.130","mlmn9dg7cmbsm27",727,"165.csv","","null","resources/maskTrios/BT4B.jpg","null","",NA,NA,NA,NA,""
"image-keyboard-response",403,409295,"0.0-3.130-2.130","mlmn9dg7cmbsm27",727,"165.csv","","null","resources/images/coin2.png","null","",NA,NA,NA,NA,""
"image-keyboard-response",404,409718,"0.0-3.131-0.131","mlmn9dg7cmbsm27",727,"165.csv","","421.1000000014901","resources/trios/L1T4A3.jpg","38","restless",0.4,0.4,0.2,0.868824564310959,"false"
"image-keyboard-response",405,410123,"0.0-3.131-1.131","mlmn9dg7cmbsm27",727,"165.csv","","null","resources/maskTrios/BT4B.jpg","null","",NA,NA,NA,NA,""
"image-keyboard-response",406,411332,"0.0-3.131-2.131","mlmn9dg7cmbsm27",727,"165.csv","","null","resources/images/fishbone.png","null","",NA,NA,NA,NA,""
"image-keyboard-response",407,411855,"0.0-3.132-0.132","mlmn9dg7cmbsm27",727,"165.csv","","520.8999999985099","resources/trios/L2T2A2.jpg","37","restless",0.4,0.4,0.2,0.223080071004967,"true"
"image-keyboard-response",408,412259,"0.0-3.132-1.132","mlmn9dg7cmbsm27",727,"165.csv","","null","resources/maskTrios/L2BB.jpg","null","",NA,NA,NA,NA,""
"image-keyboard-response",409,413471,"0.0-3.132-2.132","mlmn9dg7cmbsm27",727,"165.csv","","null","resources/images/coin2.png","null","",NA,NA,NA,NA,""
"image-keyboard-response",410,413756,"0.0-3.133-0.133","mlmn9dg7cmbsm27",727,"165.csv","","283.1000000014901","resources/trios/L2T4A3.jpg","37","restless",0.5,0.4,0.2,0.412200996776731,"true"
"image-keyboard-response",411,414164,"0.0-3.133-1.133","mlmn9dg7cmbsm27",727,"165.csv","","null","resources/maskTrios/L2BB.jpg","null","",NA,NA,NA,NA,""
"image-keyboard-response",412,415372,"0.0-3.133-2.133","mlmn9dg7cmbsm27",727,"165.csv","","null","resources/images/coin2.png","null","",NA,NA,NA,NA,""
"image-keyboard-response",413,415739,"0.0-3.134-0.134","mlmn9dg7cmbsm27",727,"165.csv","","364.8999999985099","resources/trios/L1T4A2.jpg","37","restless",0.5,0.4,0.2,0.0855029960285842,"true"
"image-keyboard-response",414,416151,"0.0-3.134-1.134","mlmn9dg7cmbsm27",727,"165.csv","","null","resources/maskTrios/L1BB.jpg","null","",NA,NA,NA,NA,""
"image-keyboard-response",415,417359,"0.0-3.134-2.134","mlmn9dg7cmbsm27",727,"165.csv","","null","resources/images/coin2.png","null","",NA,NA,NA,NA,""
"image-keyboard-response",416,417528,"0.0-3.135-0.135","mlmn9dg7cmbsm27",727,"165.csv","","167.40000000223517","resources/trios/L1T4A2.jpg","37","restless",0.5,0.4,0.2,0.823246801990257,"false"
"image-keyboard-response",417,417935,"0.0-3.135-1.135","mlmn9dg7cmbsm27",727,"165.csv","","null","resources/maskTrios/L1BB.jpg","null","",NA,NA,NA,NA,""
"image-keyboard-response",418,419143,"0.0-3.135-2.135","mlmn9dg7cmbsm27",727,"165.csv","","null","resources/images/fishbone.png","null","",NA,NA,NA,NA,""
"image-keyboard-response",419,419455,"0.0-3.136-0.136","mlmn9dg7cmbsm27",727,"165.csv","","310.0999999977648","resources/trios/L2T2A2.jpg","39","restless",0.5,0.4,0.2,0.178553261230244,"true"
"image-keyboard-response",420,419863,"0.0-3.136-1.136","mlmn9dg7cmbsm27",727,"165.csv","","null","resources/maskTrios/BBA2.jpg","null","",NA,NA,NA,NA,""
"image-keyboard-response",421,421071,"0.0-3.136-2.136","mlmn9dg7cmbsm27",727,"165.csv","","null","resources/images/coin2.png","null","",NA,NA,NA,NA,""
"image-keyboard-response",422,421342,"0.0-3.137-0.137","mlmn9dg7cmbsm27",727,"165.csv","","269.19999999925494","resources/trios/L2T4A3.jpg","39","restless",0.5,0.4,0.2,0.857438942568006,"false"
"image-keyboard-response",423,421750,"0.0-3.137-1.137","mlmn9dg7cmbsm27",727,"165.csv","","null","resources/maskTrios/BBA3.jpg","null","",NA,NA,NA,NA,""
"image-keyboard-response",424,422959,"0.0-3.137-2.137","mlmn9dg7cmbsm27",727,"165.csv","","null","resources/images/fishbone.png","null","",NA,NA,NA,NA,""
"image-keyboard-response",425,423623,"0.0-3.138-0.138","mlmn9dg7cmbsm27",727,"165.csv","","662.3000000007451","resources/trios/L1T2A3.jpg","38","restless",0.5,0.4,0.2,0.45590111037625,"false"
"image-keyboard-response",426,424031,"0.0-3.138-1.138","mlmn9dg7cmbsm27",727,"165.csv","","null","resources/maskTrios/BT2B.jpg","null","",NA,NA,NA,NA,""
"image-keyboard-response",427,425239,"0.0-3.138-2.138","mlmn9dg7cmbsm27",727,"165.csv","","null","resources/images/fishbone.png","null","",NA,NA,NA,NA,""
"image-keyboard-response",428,425267,"0.0-3.139-0.139","mlmn9dg7cmbsm27",727,"165.csv","","26.099999997764826","resources/trios/L1T4A3.jpg","37","restless",0.5,0.4,0.3,0.573822460708005,"false"
"image-keyboard-response",429,425679,"0.0-3.139-1.139","mlmn9dg7cmbsm27",727,"165.csv","","null","resources/maskTrios/L1BB.jpg","null","",NA,NA,NA,NA,""
"image-keyboard-response",430,426882,"0.0-3.139-2.139","mlmn9dg7cmbsm27",727,"165.csv","","null","resources/images/fishbone.png","null","",NA,NA,NA,NA,""
"image-keyboard-response",431,427427,"0.0-3.140-0.140","mlmn9dg7cmbsm27",727,"165.csv","","542.5999999977648","resources/trios/L2T4A3.jpg","39","restless",0.5,0.4,0.3,0.923616489461793,"false"
"image-keyboard-response",432,427839,"0.0-3.140-1.140","mlmn9dg7cmbsm27",727,"165.csv","","null","resources/maskTrios/BBA3.jpg","null","",NA,NA,NA,NA,""
"image-keyboard-response",433,429043,"0.0-3.140-2.140","mlmn9dg7cmbsm27",727,"165.csv","","null","resources/images/fishbone.png","null","",NA,NA,NA,NA,""
"image-keyboard-response",434,429526,"0.0-3.141-0.141","mlmn9dg7cmbsm27",727,"165.csv","","481.1000000014901","resources/trios/L1T4A3.jpg","38","restless",0.5,0.4,0.3,0.93704847342765,"false"
"image-keyboard-response",435,429930,"0.0-3.141-1.141","mlmn9dg7cmbsm27",727,"165.csv","","null","resources/maskTrios/BT4B.jpg","null","",NA,NA,NA,NA,""
"image-keyboard-response",436,431143,"0.0-3.141-2.141","mlmn9dg7cmbsm27",727,"165.csv","","null","resources/images/fishbone.png","null","",NA,NA,NA,NA,""
"image-keyboard-response",437,431165,"0.0-3.142-0.142","mlmn9dg7cmbsm27",727,"165.csv","","20.400000002235174","resources/trios/L1T2A3.jpg","37","restless",0.5,0.4,0.3,0.388421484272971,"true"
"image-keyboard-response",438,431574,"0.0-3.142-1.142","mlmn9dg7cmbsm27",727,"165.csv","","null","resources/maskTrios/L1BB.jpg","null","",NA,NA,NA,NA,""
"image-keyboard-response",439,432782,"0.0-3.142-2.142","mlmn9dg7cmbsm27",727,"165.csv","","null","resources/images/coin2.png","null","",NA,NA,NA,NA,""
"image-keyboard-response",440,433122,"0.0-3.143-0.143","mlmn9dg7cmbsm27",727,"165.csv","","338.30000000074506","resources/trios/L2T4A3.jpg","37","restless",0.5,0.4,0.3,0.629753474459837,"false"
"image-keyboard-response",441,433534,"0.0-3.143-1.143","mlmn9dg7cmbsm27",727,"165.csv","","null","resources/maskTrios/L2BB.jpg","null","",NA,NA,NA,NA,""
"image-keyboard-response",442,434738,"0.0-3.143-2.143","mlmn9dg7cmbsm27",727,"165.csv","","null","resources/images/fishbone.png","null","",NA,NA,NA,NA,""
"image-keyboard-response",443,435240,"0.0-3.144-0.144","mlmn9dg7cmbsm27",727,"165.csv","","500.69999999925494","resources/trios/L1T2A2.jpg","39","restless",0.5,0.4,0.3,0.360480405852438,"false"
"image-keyboard-response",444,435654,"0.0-3.144-1.144","mlmn9dg7cmbsm27",727,"165.csv","","null","resources/maskTrios/BBA2.jpg","null","",NA,NA,NA,NA,""
"image-keyboard-response",445,436861,"0.0-3.144-2.144","mlmn9dg7cmbsm27",727,"165.csv","","null","resources/images/fishbone.png","null","",NA,NA,NA,NA,""
"image-keyboard-response",446,437171,"0.0-3.145-0.145","mlmn9dg7cmbsm27",727,"165.csv","","307.9000000022352","resources/trios/L2T4A2.jpg","38","restless",0.5,0.5,0.3,0.625831842628036,"false"
"image-keyboard-response",447,437582,"0.0-3.145-1.145","mlmn9dg7cmbsm27",727,"165.csv","","null","resources/maskTrios/BT4B.jpg","null","",NA,NA,NA,NA,""
"image-keyboard-response",448,438790,"0.0-3.145-2.145","mlmn9dg7cmbsm27",727,"165.csv","","null","resources/images/fishbone.png","null","",NA,NA,NA,NA,""
"image-keyboard-response",449,439111,"0.0-3.146-0.146","mlmn9dg7cmbsm27",727,"165.csv","","318.30000000074506","resources/trios/L1T4A3.jpg","37","restless",0.6,0.5,0.3,0.685084019626187,"false"
"image-keyboard-response",450,439518,"0.0-3.146-1.146","mlmn9dg7cmbsm27",727,"165.csv","","null","resources/maskTrios/L1BB.jpg","null","",NA,NA,NA,NA,""
"image-keyboard-response",451,440726,"0.0-3.146-2.146","mlmn9dg7cmbsm27",727,"165.csv","","null","resources/images/fishbone.png","null","",NA,NA,NA,NA,""
"image-keyboard-response",452,441044,"0.0-3.147-0.147","mlmn9dg7cmbsm27",727,"165.csv","","315.9000000022352","resources/trios/L2T2A2.jpg","39","restless",0.6,0.6,0.3,0.38717144254542,"false"
"image-keyboard-response",453,441454,"0.0-3.147-1.147","mlmn9dg7cmbsm27",727,"165.csv","","null","resources/maskTrios/BBA2.jpg","null","",NA,NA,NA,NA,""
"image-keyboard-response",454,442662,"0.0-3.147-2.147","mlmn9dg7cmbsm27",727,"165.csv","","null","resources/images/fishbone.png","null","",NA,NA,NA,NA,""
"image-keyboard-response",455,442713,"0.0-3.148-0.148","mlmn9dg7cmbsm27",727,"165.csv","","48.899999998509884","resources/trios/L1T4A2.jpg","39","restless",0.6,0.6,0.3,0.407833438392434,"false"
"image-keyboard-response",456,443122,"0.0-3.148-1.148","mlmn9dg7cmbsm27",727,"165.csv","","null","resources/maskTrios/BBA2.jpg","null","",NA,NA,NA,NA,""
"image-keyboard-response",457,444334,"0.0-3.148-2.148","mlmn9dg7cmbsm27",727,"165.csv","","null","resources/images/fishbone.png","null","",NA,NA,NA,NA,""
"image-keyboard-response",458,444638,"0.0-3.149-0.149","mlmn9dg7cmbsm27",727,"165.csv","","301.8999999985099","resources/trios/L1T2A2.jpg","37","restless",0.6,0.6,0.2,0.520656567054567,"true"
"image-keyboard-response",459,445046,"0.0-3.149-1.149","mlmn9dg7cmbsm27",727,"165.csv","","null","resources/maskTrios/L1BB.jpg","null","",NA,NA,NA,NA,""
"image-keyboard-response",460,446254,"0.0-3.149-2.149","mlmn9dg7cmbsm27",727,"165.csv","","null","resources/images/coin2.png","null","",NA,NA,NA,NA,""
"image-keyboard-response",461,446728,"0.0-3.150-0.150","mlmn9dg7cmbsm27",727,"165.csv","","471.3999999985099","resources/trios/L2T2A2.jpg","37","restless",0.6,0.6,0.2,0.39650360693622,"true"
"image-keyboard-response",462,447142,"0.0-3.150-1.150","mlmn9dg7cmbsm27",727,"165.csv","","null","resources/maskTrios/L2BB.jpg","null","",NA,NA,NA,NA,""
"image-keyboard-response",463,448350,"0.0-3.150-2.150","mlmn9dg7cmbsm27",727,"165.csv","","null","resources/images/coin2.png","null","",NA,NA,NA,NA,""
"image-keyboard-response",464,448779,"0.0-3.151-0.151","mlmn9dg7cmbsm27",727,"165.csv","","427.6000000014901","resources/trios/L1T2A2.jpg","37","restless",0.6,0.6,0.2,0.667824501484743,"false"
"image-keyboard-response",465,449190,"0.0-3.151-1.151","mlmn9dg7cmbsm27",727,"165.csv","","null","resources/maskTrios/L1BB.jpg","null","",NA,NA,NA,NA,""
"image-keyboard-response",466,450398,"0.0-3.151-2.151","mlmn9dg7cmbsm27",727,"165.csv","","null","resources/images/fishbone.png","null","",NA,NA,NA,NA,""
"image-keyboard-response",467,450738,"0.0-3.152-0.152","mlmn9dg7cmbsm27",727,"165.csv","","337.6000000014901","resources/trios/L1T4A3.jpg","39","restless",0.6,0.6,0.2,0.637908740835183,"false"
"image-keyboard-response",468,451150,"0.0-3.152-1.152","mlmn9dg7cmbsm27",727,"165.csv","","null","resources/maskTrios/BBA3.jpg","null","",NA,NA,NA,NA,""
"image-keyboard-response",469,452358,"0.0-3.152-2.152","mlmn9dg7cmbsm27",727,"165.csv","","null","resources/images/fishbone.png","null","",NA,NA,NA,NA,""
"image-keyboard-response",470,452777,"0.0-3.153-0.153","mlmn9dg7cmbsm27",727,"165.csv","","417.80000000074506","resources/trios/L2T2A2.jpg","39","restless",0.6,0.6,0.2,0.618821571946877,"false"
"image-keyboard-response",471,453190,"0.0-3.153-1.153","mlmn9dg7cmbsm27",727,"165.csv","","null","resources/maskTrios/BBA2.jpg","null","",NA,NA,NA,NA,""
"image-keyboard-response",472,454394,"0.0-3.153-2.153","mlmn9dg7cmbsm27",727,"165.csv","","null","resources/images/fishbone.png","null","",NA,NA,NA,NA,""
"image-keyboard-response",473,455026,"0.0-3.154-0.154","mlmn9dg7cmbsm27",727,"165.csv","","629.5","resources/trios/L1T4A2.jpg","37","restless",0.6,0.6,0.2,0.617587022810682,"false"
"image-keyboard-response",474,455438,"0.0-3.154-1.154","mlmn9dg7cmbsm27",727,"165.csv","","null","resources/maskTrios/L1BB.jpg","null","",NA,NA,NA,NA,""
"image-keyboard-response",475,456646,"0.0-3.154-2.154","mlmn9dg7cmbsm27",727,"165.csv","","null","resources/images/fishbone.png","null","",NA,NA,NA,NA,""
"image-keyboard-response",476,458487,"0.0-3.155-0.155","mlmn9dg7cmbsm27",727,"165.csv","","1839.1000000014901","resources/trios/L1T4A2.jpg","38","restless",0.6,0.6,0.2,0.172659141732649,"true"
"image-keyboard-response",477,458902,"0.0-3.155-1.155","mlmn9dg7cmbsm27",727,"165.csv","","null","resources/maskTrios/BT4B.jpg","null","",NA,NA,NA,NA,""
"image-keyboard-response",478,460106,"0.0-3.155-2.155","mlmn9dg7cmbsm27",727,"165.csv","","null","resources/images/coin2.png","null","",NA,NA,NA,NA,""
"image-keyboard-response",479,461300,"0.0-3.156-0.156","mlmn9dg7cmbsm27",727,"165.csv","","1192.0999999977648","resources/trios/L2T2A2.jpg","38","restless",0.6,0.6,0.2,0.316193205989863,"true"
"image-keyboard-response",480,461710,"0.0-3.156-1.156","mlmn9dg7cmbsm27",727,"165.csv","","null","resources/maskTrios/BT2B.jpg","null","",NA,NA,NA,NA,""
"image-keyboard-response",481,462918,"0.0-3.156-2.156","mlmn9dg7cmbsm27",727,"165.csv","","null","resources/images/coin2.png","null","",NA,NA,NA,NA,""
"image-keyboard-response",482,463392,"0.0-3.157-0.157","mlmn9dg7cmbsm27",727,"165.csv","","472.5","resources/trios/L1T2A2.jpg","39","restless",0.7,0.6,0.2,0.128257198921421,"true"
"image-keyboard-response",483,463806,"0.0-3.157-1.157","mlmn9dg7cmbsm27",727,"165.csv","","null","resources/maskTrios/BBA2.jpg","null","",NA,NA,NA,NA,""
"image-keyboard-response",484,465014,"0.0-3.157-2.157","mlmn9dg7cmbsm27",727,"165.csv","","null","resources/images/coin2.png","null","",NA,NA,NA,NA,""
"image-keyboard-response",485,465523,"0.0-3.158-0.158","mlmn9dg7cmbsm27",727,"165.csv","","507.6000000014901","resources/trios/L2T2A2.jpg","38","restless",0.7,0.6,0.2,0.101872389391891,"true"
"image-keyboard-response",486,465933,"0.0-3.158-1.158","mlmn9dg7cmbsm27",727,"165.csv","","null","resources/maskTrios/BT2B.jpg","null","",NA,NA,NA,NA,""
"image-keyboard-response",487,467142,"0.0-3.158-2.158","mlmn9dg7cmbsm27",727,"165.csv","","null","resources/images/coin2.png","null","",NA,NA,NA,NA,""
"image-keyboard-response",488,467786,"0.0-3.159-0.159","mlmn9dg7cmbsm27",727,"165.csv","","641.8999999985099","resources/trios/L2T4A3.jpg","39","restless",0.8,0.6,0.2,0.467322191035597,"false"
"image-keyboard-response",489,468197,"0.0-3.159-1.159","mlmn9dg7cmbsm27",727,"165.csv","","null","resources/maskTrios/BBA3.jpg","null","",NA,NA,NA,NA,""
"image-keyboard-response",490,469405,"0.0-3.159-2.159","mlmn9dg7cmbsm27",727,"165.csv","","null","resources/images/fishbone.png","null","",NA,NA,NA,NA,""
"image-keyboard-response",491,470570,"0.0-3.160-0.160","mlmn9dg7cmbsm27",727,"165.csv","","1162.300000000745","resources/trios/L2T4A3.jpg","38","restless",0.8,0.6,0.2,0.289461961074703,"true"
"image-keyboard-response",492,470981,"0.0-3.160-1.160","mlmn9dg7cmbsm27",727,"165.csv","","null","resources/maskTrios/BT4B.jpg","null","",NA,NA,NA,NA,""
"image-keyboard-response",493,472189,"0.0-3.160-2.160","mlmn9dg7cmbsm27",727,"165.csv","","null","resources/images/coin2.png","null","",NA,NA,NA,NA,""
"image-keyboard-response",494,472526,"0.0-3.161-0.161","mlmn9dg7cmbsm27",727,"165.csv","","334.8999999985099","resources/trios/L1T2A2.jpg","37","restless",0.8,0.6,0.2,0.750519354415597,"true"
"image-keyboard-response",495,472941,"0.0-3.161-1.161","mlmn9dg7cmbsm27",727,"165.csv","","null","resources/maskTrios/L1BB.jpg","null","",NA,NA,NA,NA,""
"image-keyboard-response",496,474149,"0.0-3.161-2.161","mlmn9dg7cmbsm27",727,"165.csv","","null","resources/images/coin2.png","null","",NA,NA,NA,NA,""
"image-keyboard-response",497,474495,"0.0-3.162-0.162","mlmn9dg7cmbsm27",727,"165.csv","","343.5999999977648","resources/trios/L2T4A3.jpg","38","restless",0.8,0.6,0.2,0.0385124696624266,"true"
"image-keyboard-response",498,474909,"0.0-3.162-1.162","mlmn9dg7cmbsm27",727,"165.csv","","null","resources/maskTrios/BT4B.jpg","null","",NA,NA,NA,NA,""
"image-keyboard-response",499,476117,"0.0-3.162-2.162","mlmn9dg7cmbsm27",727,"165.csv","","null","resources/images/coin2.png","null","",NA,NA,NA,NA,""
"image-keyboard-response",500,476488,"0.0-3.163-0.163","mlmn9dg7cmbsm27",727,"165.csv","","369","resources/trios/L2T4A2.jpg","37","restless",0.8,0.6,0.3,0.942587615616526,"false"
"image-keyboard-response",501,476901,"0.0-3.163-1.163","mlmn9dg7cmbsm27",727,"165.csv","","null","resources/maskTrios/L2BB.jpg","null","",NA,NA,NA,NA,""
"image-keyboard-response",502,478109,"0.0-3.163-2.163","mlmn9dg7cmbsm27",727,"165.csv","","null","resources/images/fishbone.png","null","",NA,NA,NA,NA,""
"image-keyboard-response",503,478559,"0.0-3.164-0.164","mlmn9dg7cmbsm27",727,"165.csv","","448","resources/trios/L1T4A2.jpg","38","restless",0.8,0.6,0.3,0.589407927773456,"true"
"image-keyboard-response",504,478973,"0.0-3.164-1.164","mlmn9dg7cmbsm27",727,"165.csv","","null","resources/maskTrios/BT4B.jpg","null","",NA,NA,NA,NA,""
"image-keyboard-response",505,480177,"0.0-3.164-2.164","mlmn9dg7cmbsm27",727,"165.csv","","null","resources/images/coin2.png","null","",NA,NA,NA,NA,""
"image-keyboard-response",506,480485,"0.0-3.165-0.165","mlmn9dg7cmbsm27",727,"165.csv","","306.4000000022352","resources/trios/L2T2A3.jpg","39","restless",0.8,0.6,0.3,0.601549220559849,"false"
"image-keyboard-response",507,480893,"0.0-3.165-1.165","mlmn9dg7cmbsm27",727,"165.csv","","null","resources/maskTrios/BBA3.jpg","null","",NA,NA,NA,NA,""
"image-keyboard-response",508,482101,"0.0-3.165-2.165","mlmn9dg7cmbsm27",727,"165.csv","","null","resources/images/fishbone.png","null","",NA,NA,NA,NA,""
"image-keyboard-response",509,483436,"0.0-3.166-0.166","mlmn9dg7cmbsm27",727,"165.csv","","1333","resources/trios/L1T2A3.jpg","38","restless",0.8,0.7,0.3,0.903190304962771,"false"
"image-keyboard-response",510,483845,"0.0-3.166-1.166","mlmn9dg7cmbsm27",727,"165.csv","","null","resources/maskTrios/BT2B.jpg","null","",NA,NA,NA,NA,""
"image-keyboard-response",511,485049,"0.0-3.166-2.166","mlmn9dg7cmbsm27",727,"165.csv","","null","resources/images/fishbone.png","null","",NA,NA,NA,NA,""
"image-keyboard-response",512,485340,"0.0-3.167-0.167","mlmn9dg7cmbsm27",727,"165.csv","","289.20000000298023","resources/trios/L2T4A2.jpg","39","restless",0.8,0.7,0.3,0.541271394336793,"false"
"image-keyboard-response",513,485745,"0.0-3.167-1.167","mlmn9dg7cmbsm27",727,"165.csv","","null","resources/maskTrios/BBA2.jpg","null","",NA,NA,NA,NA,""
"image-keyboard-response",514,486957,"0.0-3.167-2.167","mlmn9dg7cmbsm27",727,"165.csv","","null","resources/images/fishbone.png","null","",NA,NA,NA,NA,""
"image-keyboard-response",515,487319,"0.0-3.168-0.168","mlmn9dg7cmbsm27",727,"165.csv","","360","resources/trios/L1T2A3.jpg","37","restless",0.8,0.7,0.2,0.538453711404437,"true"
"image-keyboard-response",516,487733,"0.0-3.168-1.168","mlmn9dg7cmbsm27",727,"165.csv","","null","resources/maskTrios/L1BB.jpg","null","",NA,NA,NA,NA,""
"image-keyboard-response",517,488941,"0.0-3.168-2.168","mlmn9dg7cmbsm27",727,"165.csv","","null","resources/images/coin2.png","null","",NA,NA,NA,NA,""
"image-keyboard-response",518,489404,"0.0-3.169-0.169","mlmn9dg7cmbsm27",727,"165.csv","","461.19999999925494","resources/trios/L1T2A2.jpg","38","restless",0.8,0.7,0.2,0.246921721269647,"true"
"image-keyboard-response",519,489811,"0.0-3.169-1.169","mlmn9dg7cmbsm27",727,"165.csv","","null","resources/maskTrios/BT2B.jpg","null","",NA,NA,NA,NA,""
"image-keyboard-response",520,491021,"0.0-3.169-2.169","mlmn9dg7cmbsm27",727,"165.csv","","null","resources/images/coin2.png","null","",NA,NA,NA,NA,""
"image-keyboard-response",521,491314,"0.0-3.170-0.170","mlmn9dg7cmbsm27",727,"165.csv","","291","resources/trios/L2T2A2.jpg","37","restless",0.8,0.7,0.2,0.112253733000693,"true"
"image-keyboard-response",522,491725,"0.0-3.170-1.170","mlmn9dg7cmbsm27",727,"165.csv","","null","resources/maskTrios/L2BB.jpg","null","",NA,NA,NA,NA,""
"image-keyboard-response",523,492933,"0.0-3.170-2.170","mlmn9dg7cmbsm27",727,"165.csv","","null","resources/images/coin2.png","null","",NA,NA,NA,NA,""
"image-keyboard-response",524,493057,"0.0-3.171-0.171","mlmn9dg7cmbsm27",727,"165.csv","","122.5","resources/trios/L1T2A3.jpg","37","restless",0.8,0.7,0.2,0.796784504670223,"true"
"image-keyboard-response",525,493469,"0.0-3.171-1.171","mlmn9dg7cmbsm27",727,"165.csv","","null","resources/maskTrios/L1BB.jpg","null","",NA,NA,NA,NA,""
"image-keyboard-response",526,494672,"0.0-3.171-2.171","mlmn9dg7cmbsm27",727,"165.csv","","null","resources/images/coin2.png","null","",NA,NA,NA,NA,""
"image-keyboard-response",527,495498,"0.0-3.172-0.172","mlmn9dg7cmbsm27",727,"165.csv","","823.2000000029802","resources/trios/L1T4A2.jpg","37","restless",0.8,0.7,0.2,0.465813257875239,"true"
"image-keyboard-response",528,495909,"0.0-3.172-1.172","mlmn9dg7cmbsm27",727,"165.csv","","null","resources/maskTrios/L1BB.jpg","null","",NA,NA,NA,NA,""
"image-keyboard-response",529,497117,"0.0-3.172-2.172","mlmn9dg7cmbsm27",727,"165.csv","","null","resources/images/coin2.png","null","",NA,NA,NA,NA,""
"image-keyboard-response",530,497516,"0.0-3.173-0.173","mlmn9dg7cmbsm27",727,"165.csv","","397.5","resources/trios/L1T4A2.jpg","37","restless",0.8,0.7,0.3,0.632960876250954,"true"
"image-keyboard-response",531,497924,"0.0-3.173-1.173","mlmn9dg7cmbsm27",727,"165.csv","","null","resources/maskTrios/L1BB.jpg","null","",NA,NA,NA,NA,""
"image-keyboard-response",532,499133,"0.0-3.173-2.173","mlmn9dg7cmbsm27",727,"165.csv","","null","resources/images/coin2.png","null","",NA,NA,NA,NA,""
"image-keyboard-response",533,499161,"0.0-3.174-0.174","mlmn9dg7cmbsm27",727,"165.csv","","26","resources/trios/L1T4A3.jpg","38","restless",0.8,0.7,0.3,0.124473443874114,"true"
"image-keyboard-response",534,499572,"0.0-3.174-1.174","mlmn9dg7cmbsm27",727,"165.csv","","null","resources/maskTrios/BT4B.jpg","null","",NA,NA,NA,NA,""
"image-keyboard-response",535,500780,"0.0-3.174-2.174","mlmn9dg7cmbsm27",727,"165.csv","","null","resources/images/coin2.png","null","",NA,NA,NA,NA,""
"image-keyboard-response",536,501135,"0.0-3.175-0.175","mlmn9dg7cmbsm27",727,"165.csv","","352.5","resources/trios/L1T4A3.jpg","38","restless",0.8,0.7,0.3,0.640871163676025,"true"
"image-keyboard-response",537,501548,"0.0-3.175-1.175","mlmn9dg7cmbsm27",727,"165.csv","","null","resources/maskTrios/BT4B.jpg","null","",NA,NA,NA,NA,""
"image-keyboard-response",538,502756,"0.0-3.175-2.175","mlmn9dg7cmbsm27",727,"165.csv","","null","resources/images/coin2.png","null","",NA,NA,NA,NA,""
"image-keyboard-response",539,504944,"0.0-3.176-0.176","mlmn9dg7cmbsm27",727,"165.csv","","2185.5","resources/trios/L1T2A3.jpg","38","restless",0.8,0.7,0.3,0.799626527515518,"false"
"image-keyboard-response",540,505356,"0.0-3.176-1.176","mlmn9dg7cmbsm27",727,"165.csv","","null","resources/maskTrios/BT2B.jpg","null","",NA,NA,NA,NA,""
"image-keyboard-response",541,506564,"0.0-3.176-2.176","mlmn9dg7cmbsm27",727,"165.csv","","null","resources/images/fishbone.png","null","",NA,NA,NA,NA,""
"image-keyboard-response",542,507705,"0.0-3.177-0.177","mlmn9dg7cmbsm27",727,"165.csv","","1139","resources/trios/L2T4A2.jpg","39","restless",0.8,0.7,0.3,0.431356583914508,"false"
"image-keyboard-response",543,508116,"0.0-3.177-1.177","mlmn9dg7cmbsm27",727,"165.csv","","null","resources/maskTrios/BBA2.jpg","null","",NA,NA,NA,NA,""
"image-keyboard-response",544,509320,"0.0-3.177-2.177","mlmn9dg7cmbsm27",727,"165.csv","","null","resources/images/fishbone.png","null","",NA,NA,NA,NA,""
"image-keyboard-response",545,509967,"0.0-3.178-0.178","mlmn9dg7cmbsm27",727,"165.csv","","644.3999999985099","resources/trios/L2T4A3.jpg","37","restless",0.8,0.8,0.3,0.139277520628396,"true"
"image-keyboard-response",546,510378,"0.0-3.178-1.178","mlmn9dg7cmbsm27",727,"165.csv","","null","resources/maskTrios/L2BB.jpg","null","",NA,NA,NA,NA,""
"image-keyboard-response",547,511584,"0.0-3.178-2.178","mlmn9dg7cmbsm27",727,"165.csv","","null","resources/images/coin2.png","null","",NA,NA,NA,NA,""
"image-keyboard-response",548,511940,"0.0-3.179-0.179","mlmn9dg7cmbsm27",727,"165.csv","","353.5999999977648","resources/trios/L1T2A3.jpg","38","restless",0.8,0.8,0.3,0.972051360773805,"false"
"image-keyboard-response",549,512348,"0.0-3.179-1.179","mlmn9dg7cmbsm27",727,"165.csv","","null","resources/maskTrios/BT2B.jpg","null","",NA,NA,NA,NA,""
"image-keyboard-response",550,513556,"0.0-3.179-2.179","mlmn9dg7cmbsm27",727,"165.csv","","null","resources/images/fishbone.png","null","",NA,NA,NA,NA,""
"image-keyboard-response",551,513793,"0.0-3.180-0.180","mlmn9dg7cmbsm27",727,"165.csv","","234.80000000074506","resources/trios/L1T2A3.jpg","39","restless",0.8,0.8,0.3,0.801113738449923,"false"
"image-keyboard-response",552,514204,"0.0-3.180-1.180","mlmn9dg7cmbsm27",727,"165.csv","","null","resources/maskTrios/BBA3.jpg","null","",NA,NA,NA,NA,""
"image-keyboard-response",553,515412,"0.0-3.180-2.180","mlmn9dg7cmbsm27",727,"165.csv","","null","resources/images/fishbone.png","null","",NA,NA,NA,NA,""
"image-keyboard-response",554,515675,"0.0-3.181-0.181","mlmn9dg7cmbsm27",727,"165.csv","","260.80000000074506","resources/trios/L1T2A3.jpg","37","restless",0.8,0.8,0.3,0.252623740184101,"true"
"image-keyboard-response",555,516080,"0.0-3.181-1.181","mlmn9dg7cmbsm27",727,"165.csv","","null","resources/maskTrios/L1BB.jpg","null","",NA,NA,NA,NA,""
"image-keyboard-response",556,517292,"0.0-3.181-2.181","mlmn9dg7cmbsm27",727,"165.csv","","null","resources/images/coin2.png","null","",NA,NA,NA,NA,""
"image-keyboard-response",557,517675,"0.0-3.182-0.182","mlmn9dg7cmbsm27",727,"165.csv","","380.30000000074506","resources/trios/L2T4A3.jpg","37","restless",0.8,0.8,0.3,0.356875040342181,"true"
"image-keyboard-response",558,518084,"0.0-3.182-1.182","mlmn9dg7cmbsm27",727,"165.csv","","null","resources/maskTrios/L2BB.jpg","null","",NA,NA,NA,NA,""
"image-keyboard-response",559,519292,"0.0-3.182-2.182","mlmn9dg7cmbsm27",727,"165.csv","","null","resources/images/coin2.png","null","",NA,NA,NA,NA,""
"image-keyboard-response",560,519676,"0.0-3.183-0.183","mlmn9dg7cmbsm27",727,"165.csv","","382.19999999925494","resources/trios/L1T2A3.jpg","37","restless",0.8,0.8,0.3,0.232300338306395,"true"
"image-keyboard-response",561,520084,"0.0-3.183-1.183","mlmn9dg7cmbsm27",727,"165.csv","","null","resources/maskTrios/L1BB.jpg","null","",NA,NA,NA,NA,""
"image-keyboard-response",562,521292,"0.0-3.183-2.183","mlmn9dg7cmbsm27",727,"165.csv","","null","resources/images/coin2.png","null","",NA,NA,NA,NA,""
"image-keyboard-response",563,521474,"0.0-3.184-0.184","mlmn9dg7cmbsm27",727,"165.csv","","179.5","resources/trios/L2T2A2.jpg","37","restless",0.9,0.8,0.3,0.425245630843329,"true"
"image-keyboard-response",564,521884,"0.0-3.184-1.184","mlmn9dg7cmbsm27",727,"165.csv","","null","resources/maskTrios/L2BB.jpg","null","",NA,NA,NA,NA,""
"image-keyboard-response",565,523087,"0.0-3.184-2.184","mlmn9dg7cmbsm27",727,"165.csv","","null","resources/images/coin2.png","null","",NA,NA,NA,NA,""
"image-keyboard-response",566,523141,"0.0-3.185-0.185","mlmn9dg7cmbsm27",727,"165.csv","","51.19999999925494","resources/trios/L2T2A3.jpg","37","restless",0.9,0.9,0.4,0.0491877698719447,"true"
"image-keyboard-response",567,523548,"0.0-3.185-1.185","mlmn9dg7cmbsm27",727,"165.csv","","null","resources/maskTrios/L2BB.jpg","null","",NA,NA,NA,NA,""
"image-keyboard-response",568,524756,"0.0-3.185-2.185","mlmn9dg7cmbsm27",727,"165.csv","","null","resources/images/coin2.png","null","",NA,NA,NA,NA,""
"image-keyboard-response",569,525080,"0.0-3.186-0.186","mlmn9dg7cmbsm27",727,"165.csv","","322.1000000014901","resources/trios/L1T4A3.jpg","37","restless",0.9,0.9,0.4,0.63299023411976,"true"
"image-keyboard-response",570,525492,"0.0-3.186-1.186","mlmn9dg7cmbsm27",727,"165.csv","","null","resources/maskTrios/L1BB.jpg","null","",NA,NA,NA,NA,""
"image-keyboard-response",571,526700,"0.0-3.186-2.186","mlmn9dg7cmbsm27",727,"165.csv","","null","resources/images/coin2.png","null","",NA,NA,NA,NA,""
"image-keyboard-response",572,527027,"0.0-3.187-0.187","mlmn9dg7cmbsm27",727,"165.csv","","324.69999999925494","resources/trios/L2T2A3.jpg","37","restless",0.9,0.9,0.4,0.961078503142726,"false"
"image-keyboard-response",573,527436,"0.0-3.187-1.187","mlmn9dg7cmbsm27",727,"165.csv","","null","resources/maskTrios/L2BB.jpg","null","",NA,NA,NA,NA,""
"image-keyboard-response",574,528644,"0.0-3.187-2.187","mlmn9dg7cmbsm27",727,"165.csv","","null","resources/images/fishbone.png","null","",NA,NA,NA,NA,""
"image-keyboard-response",575,529744,"0.0-3.188-0.188","mlmn9dg7cmbsm27",727,"165.csv","","1098.300000000745","resources/trios/L1T2A3.jpg","38","restless",0.8,0.9,0.4,0.957221634596721,"false"
"image-keyboard-response",576,530153,"0.0-3.188-1.188","mlmn9dg7cmbsm27",727,"165.csv","","null","resources/maskTrios/BT2B.jpg","null","",NA,NA,NA,NA,""
"image-keyboard-response",577,531364,"0.0-3.188-2.188","mlmn9dg7cmbsm27",727,"165.csv","","null","resources/images/fishbone.png","null","",NA,NA,NA,NA,""
"image-keyboard-response",578,531733,"0.0-3.189-0.189","mlmn9dg7cmbsm27",727,"165.csv","","367.69999999925494","resources/trios/L2T2A3.jpg","39","restless",0.8,0.9,0.4,0.744458884191361,"false"
"image-keyboard-response",579,532148,"0.0-3.189-1.189","mlmn9dg7cmbsm27",727,"165.csv","","null","resources/maskTrios/BBA3.jpg","null","",NA,NA,NA,NA,""
"image-keyboard-response",580,533355,"0.0-3.189-2.189","mlmn9dg7cmbsm27",727,"165.csv","","null","resources/images/fishbone.png","null","",NA,NA,NA,NA,""
"image-keyboard-response",581,533688,"0.0-3.190-0.190","mlmn9dg7cmbsm27",727,"165.csv","","330.80000000074506","resources/trios/L1T2A2.jpg","38","restless",0.8,0.9,0.4,0.784536638817378,"true"
"image-keyboard-response",582,534099,"0.0-3.190-1.190","mlmn9dg7cmbsm27",727,"165.csv","","null","resources/maskTrios/BT2B.jpg","null","",NA,NA,NA,NA,""
"image-keyboard-response",583,535305,"0.0-3.190-2.190","mlmn9dg7cmbsm27",727,"165.csv","","null","resources/images/coin2.png","null","",NA,NA,NA,NA,""
"image-keyboard-response",584,536092,"0.0-3.191-0.191","mlmn9dg7cmbsm27",727,"165.csv","","784.8999999985099","resources/trios/L1T2A2.jpg","38","restless",0.7,0.9,0.4,0.809455171596458,"true"
"image-keyboard-response",585,536507,"0.0-3.191-1.191","mlmn9dg7cmbsm27",727,"165.csv","","null","resources/maskTrios/BT2B.jpg","null","",NA,NA,NA,NA,""
"image-keyboard-response",586,537715,"0.0-3.191-2.191","mlmn9dg7cmbsm27",727,"165.csv","","null","resources/images/coin2.png","null","",NA,NA,NA,NA,""
"image-keyboard-response",587,538150,"0.0-3.192-0.192","mlmn9dg7cmbsm27",727,"165.csv","","432.80000000074506","resources/trios/L2T4A3.jpg","38","restless",0.7,0.9,0.4,0.329686557738835,"true"
"image-keyboard-response",588,538563,"0.0-3.192-1.192","mlmn9dg7cmbsm27",727,"165.csv","","null","resources/maskTrios/BT4B.jpg","null","",NA,NA,NA,NA,""
"image-keyboard-response",589,539771,"0.0-3.192-2.192","mlmn9dg7cmbsm27",727,"165.csv","","null","resources/images/coin2.png","null","",NA,NA,NA,NA,""
"image-keyboard-response",590,539845,"0.0-3.193-0.193","mlmn9dg7cmbsm27",727,"165.csv","","72","resources/trios/L1T4A2.jpg","38","restless",0.6,0.9,0.4,0.299710924217362,"true"
"image-keyboard-response",591,540255,"0.0-3.193-1.193","mlmn9dg7cmbsm27",727,"165.csv","","null","resources/maskTrios/BT4B.jpg","null","",NA,NA,NA,NA,""
"image-keyboard-response",592,541467,"0.0-3.193-2.193","mlmn9dg7cmbsm27",727,"165.csv","","null","resources/images/coin2.png","null","",NA,NA,NA,NA,""
"image-keyboard-response",593,547987,"0.0-3.194-0.194","mlmn9dg7cmbsm27",727,"165.csv","","6518.199999999255","resources/trios/L1T4A2.jpg","38","restless",0.6,0.9,0.4,0.279738601463103,"true"
"image-keyboard-response",594,548395,"0.0-3.194-1.194","mlmn9dg7cmbsm27",727,"165.csv","","null","resources/maskTrios/BT4B.jpg","null","",NA,NA,NA,NA,""
"image-keyboard-response",595,549598,"0.0-3.194-2.194","mlmn9dg7cmbsm27",727,"165.csv","","null","resources/images/coin2.png","null","",NA,NA,NA,NA,""
"image-keyboard-response",596,550973,"0.0-3.195-0.195","mlmn9dg7cmbsm27",727,"165.csv","","1372.5","resources/trios/L2T2A2.jpg","38","restless",0.6,0.9,0.4,0.48407560638236,"true"
"image-keyboard-response",597,551387,"0.0-3.195-1.195","mlmn9dg7cmbsm27",727,"165.csv","","null","resources/maskTrios/BT2B.jpg","null","",NA,NA,NA,NA,""
"image-keyboard-response",598,552595,"0.0-3.195-2.195","mlmn9dg7cmbsm27",727,"165.csv","","null","resources/images/coin2.png","null","",NA,NA,NA,NA,""
"image-keyboard-response",599,553043,"0.0-3.196-0.196","mlmn9dg7cmbsm27",727,"165.csv","","446.0999999977648","resources/trios/L2T2A2.jpg","38","restless",0.6,0.9,0.4,0.224558226376978,"true"
"image-keyboard-response",600,553451,"0.0-3.196-1.196","mlmn9dg7cmbsm27",727,"165.csv","","null","resources/maskTrios/BT2B.jpg","null","",NA,NA,NA,NA,""
"image-keyboard-response",601,554659,"0.0-3.196-2.196","mlmn9dg7cmbsm27",727,"165.csv","","null","resources/images/coin2.png","null","",NA,NA,NA,NA,""
"image-keyboard-response",602,555278,"0.0-3.197-0.197","mlmn9dg7cmbsm27",727,"165.csv","","616.8999999985099","resources/trios/L2T2A3.jpg","38","restless",0.6,0.9,0.4,0.556683927566988,"true"
"image-keyboard-response",603,555686,"0.0-3.197-1.197","mlmn9dg7cmbsm27",727,"165.csv","","null","resources/maskTrios/BT2B.jpg","null","",NA,NA,NA,NA,""
"image-keyboard-response",604,556898,"0.0-3.197-2.197","mlmn9dg7cmbsm27",727,"165.csv","","null","resources/images/coin2.png","null","",NA,NA,NA,NA,""
"image-keyboard-response",605,556958,"0.0-3.198-0.198","mlmn9dg7cmbsm27",727,"165.csv","","58.100000001490116","resources/trios/L1T4A2.jpg","38","restless",0.5,0.9,0.4,0.474822224496579,"true"
"image-keyboard-response",606,557368,"0.0-3.198-1.198","mlmn9dg7cmbsm27",727,"165.csv","","null","resources/maskTrios/BT4B.jpg","null","",NA,NA,NA,NA,""
