"trial_type","trial_index","time_elapsed","internal_node_id","subject","participantCode","walkNumber","success","rt","stimulus","key_press","test_part","leftProb","midProb","rightProb","generatedNum","correct"
"pavlovia",0,1733,"0.0-0.0","vz8ybgzn49g3kyv",174,"55.csv","","","","","",NA,NA,NA,NA,""
"fullscreen",1,6241,"0.0-1.0","vz8ybgzn49g3kyv",174,"55.csv","true","","","","",NA,NA,NA,NA,""
"html-keyboard-response",2,21304,"0.0-2.0-0.0","vz8ybgzn49g3kyv",174,"55.csv","","15061","<p><font size='6'>Arrrgh!</p></font><p>Can you be the best pirate? Try to find lots of gold! But beware, some islands have more gold than others, and over time, the island with the most gold may change. Can YOU figure it out? </p><font size='6'>GOOD LUCK, CAPTAIN!!!</font><p>Press any key to begin</p>","32","",NA,NA,NA,NA,""
"image-keyboard-response",3,24307,"0.0-2.0-1.0","vz8ybgzn49g3kyv",174,"55.csv","","null","resources/image_sets/111.png","null","",NA,NA,NA,NA,""
"image-keyboard-response",4,36290,"0.0-2.0-2.0","vz8ybgzn49g3kyv",174,"55.csv","","11980","resources/image_sets/left_highlight.png","37","",NA,NA,NA,NA,""
"image-keyboard-response",5,39669,"0.0-2.0-3.0","vz8ybgzn49g3kyv",174,"55.csv","","3378","resources/image_sets/mid_highlight.png","38","",NA,NA,NA,NA,""
"image-keyboard-response",6,41108,"0.0-2.0-4.0","vz8ybgzn49g3kyv",174,"55.csv","","1437.0000000000073","resources/image_sets/right_highlight.png","39","",NA,NA,NA,NA,""
"image-keyboard-response",7,44092,"0.0-2.0-5.0","vz8ybgzn49g3kyv",174,"55.csv","","2982","resources/image_sets/111.png","13","",NA,NA,NA,NA,""
"image-keyboard-response",8,48974,"0.0-2.0-6.0","vz8ybgzn49g3kyv",174,"55.csv","","4881","resources/images/coin2.png","13","",NA,NA,NA,NA,""
"image-keyboard-response",9,52052,"0.0-2.0-7.0","vz8ybgzn49g3kyv",174,"55.csv","","3074.9999999999927","resources/images/fishbone.png","13","",NA,NA,NA,NA,""
"html-keyboard-response",10,64325,"0.0-2.0-8.0","vz8ybgzn49g3kyv",174,"55.csv","","12272","<p>Your first journey will be a long one, but you will get a well deserved break at the end</p><p>After the break you will have four more journeys, but each will be much shorter than the first, and you will have breaks in between each</p><p>Press Enter to begin</p>","13","",NA,NA,NA,NA,""
"image-keyboard-response",11,66807,"0.0-3.0-0.0","vz8ybgzn49g3kyv",174,"55.csv","","2480","resources/trios/L2T4A1.jpg","37","restless",0.3,0.9,0.7,0.813417579197197,"false"
"image-keyboard-response",12,67212,"0.0-3.0-1.0","vz8ybgzn49g3kyv",174,"55.csv","","null","resources/maskTrios/L2BB.jpg","null","",NA,NA,NA,NA,""
"image-keyboard-response",13,68415,"0.0-3.0-2.0","vz8ybgzn49g3kyv",174,"55.csv","","null","resources/images/fishbone.png","null","",NA,NA,NA,NA,""
"image-keyboard-response",14,70305,"0.0-3.1-0.1","vz8ybgzn49g3kyv",174,"55.csv","","1887","resources/trios/L1T2A2.jpg","39","restless",0.3,0.9,0.7,0.36712174882835,"true"
"image-keyboard-response",15,70709,"0.0-3.1-1.1","vz8ybgzn49g3kyv",174,"55.csv","","null","resources/maskTrios/BBA2.jpg","null","",NA,NA,NA,NA,""
"image-keyboard-response",16,71913,"0.0-3.1-2.1","vz8ybgzn49g3kyv",174,"55.csv","","null","resources/images/coin2.png","null","",NA,NA,NA,NA,""
"image-keyboard-response",17,73242,"0.0-3.2-0.2","vz8ybgzn49g3kyv",174,"55.csv","","1327","resources/trios/L1T4A2.jpg","38","restless",0.3,0.9,0.7,0.258048390236034,"true"
"image-keyboard-response",18,73645,"0.0-3.2-1.2","vz8ybgzn49g3kyv",174,"55.csv","","null","resources/maskTrios/BT4B.jpg","null","",NA,NA,NA,NA,""
"image-keyboard-response",19,74848,"0.0-3.2-2.2","vz8ybgzn49g3kyv",174,"55.csv","","null","resources/images/coin2.png","null","",NA,NA,NA,NA,""
"image-keyboard-response",20,76805,"0.0-3.3-0.3","vz8ybgzn49g3kyv",174,"55.csv","","1955","resources/trios/L2T4A2.jpg","38","restless",0.3,0.9,0.7,0.744930624117511,"true"
"image-keyboard-response",21,77207,"0.0-3.3-1.3","vz8ybgzn49g3kyv",174,"55.csv","","null","resources/maskTrios/BT4B.jpg","null","",NA,NA,NA,NA,""
"image-keyboard-response",22,78411,"0.0-3.3-2.3","vz8ybgzn49g3kyv",174,"55.csv","","null","resources/images/coin2.png","null","",NA,NA,NA,NA,""
"image-keyboard-response",23,79331,"0.0-3.4-0.4","vz8ybgzn49g3kyv",174,"55.csv","","917","resources/trios/L2T4A2.jpg","37","restless",0.3,0.9,0.7,0.115634835810788,"true"
"image-keyboard-response",24,79734,"0.0-3.4-1.4","vz8ybgzn49g3kyv",174,"55.csv","","null","resources/maskTrios/L2BB.jpg","null","",NA,NA,NA,NA,""
"image-keyboard-response",25,80936,"0.0-3.4-2.4","vz8ybgzn49g3kyv",174,"55.csv","","null","resources/images/coin2.png","null","",NA,NA,NA,NA,""
"image-keyboard-response",26,82860,"0.0-3.5-0.5","vz8ybgzn49g3kyv",174,"55.csv","","1921","resources/trios/L1T4A1.jpg","39","restless",0.3,0.9,0.7,0.252331911900006,"true"
"image-keyboard-response",27,83263,"0.0-3.5-1.5","vz8ybgzn49g3kyv",174,"55.csv","","null","resources/maskTrios/BBA1.jpg","null","",NA,NA,NA,NA,""
"image-keyboard-response",28,84466,"0.0-3.5-2.5","vz8ybgzn49g3kyv",174,"55.csv","","null","resources/images/coin2.png","null","",NA,NA,NA,NA,""
"image-keyboard-response",29,85302,"0.0-3.6-0.6","vz8ybgzn49g3kyv",174,"55.csv","","834","resources/trios/L2T4A1.jpg","38","restless",0.3,0.9,0.7,0.233235812880252,"true"
"image-keyboard-response",30,85705,"0.0-3.6-1.6","vz8ybgzn49g3kyv",174,"55.csv","","null","resources/maskTrios/BT4B.jpg","null","",NA,NA,NA,NA,""
"image-keyboard-response",31,86908,"0.0-3.6-2.6","vz8ybgzn49g3kyv",174,"55.csv","","null","resources/images/coin2.png","null","",NA,NA,NA,NA,""
"image-keyboard-response",32,87665,"0.0-3.7-0.7","vz8ybgzn49g3kyv",174,"55.csv","","754.9999999999854","resources/trios/L2T4A1.jpg","37","restless",0.3,0.9,0.7,0.62196422488356,"false"
"image-keyboard-response",33,88068,"0.0-3.7-1.7","vz8ybgzn49g3kyv",174,"55.csv","","null","resources/maskTrios/L2BB.jpg","null","",NA,NA,NA,NA,""
"image-keyboard-response",34,89270,"0.0-3.7-2.7","vz8ybgzn49g3kyv",174,"55.csv","","null","resources/images/fishbone.png","null","",NA,NA,NA,NA,""
"image-keyboard-response",35,90819,"0.0-3.8-0.8","vz8ybgzn49g3kyv",174,"55.csv","","1547","resources/trios/L1T4A2.jpg","37","restless",0.3,0.9,0.7,0.696472078123463,"false"
"image-keyboard-response",36,91222,"0.0-3.8-1.8","vz8ybgzn49g3kyv",174,"55.csv","","null","resources/maskTrios/L1BB.jpg","null","",NA,NA,NA,NA,""
"image-keyboard-response",37,92425,"0.0-3.8-2.8","vz8ybgzn49g3kyv",174,"55.csv","","null","resources/images/fishbone.png","null","",NA,NA,NA,NA,""
"image-keyboard-response",38,92907,"0.0-3.9-0.9","vz8ybgzn49g3kyv",174,"55.csv","","481","resources/trios/L2T4A2.jpg","38","restless",0.3,0.9,0.7,0.889183932451325,"true"
"image-keyboard-response",39,93310,"0.0-3.9-1.9","vz8ybgzn49g3kyv",174,"55.csv","","null","resources/maskTrios/BT4B.jpg","null","",NA,NA,NA,NA,""
"image-keyboard-response",40,94513,"0.0-3.9-2.9","vz8ybgzn49g3kyv",174,"55.csv","","null","resources/images/coin2.png","null","",NA,NA,NA,NA,""
"image-keyboard-response",41,94819,"0.0-3.10-0.10","vz8ybgzn49g3kyv",174,"55.csv","","305","resources/trios/L1T4A2.jpg","39","restless",0.3,0.8,0.7,0.512966032157806,"true"
"image-keyboard-response",42,95223,"0.0-3.10-1.10","vz8ybgzn49g3kyv",174,"55.csv","","null","resources/maskTrios/BBA2.jpg","null","",NA,NA,NA,NA,""
"image-keyboard-response",43,96426,"0.0-3.10-2.10","vz8ybgzn49g3kyv",174,"55.csv","","null","resources/images/coin2.png","null","",NA,NA,NA,NA,""
"image-keyboard-response",44,96772,"0.0-3.11-0.11","vz8ybgzn49g3kyv",174,"55.csv","","344","resources/trios/L2T2A1.jpg","39","restless",0.3,0.8,0.7,0.541986871157253,"true"
"image-keyboard-response",45,97175,"0.0-3.11-1.11","vz8ybgzn49g3kyv",174,"55.csv","","null","resources/maskTrios/BBA1.jpg","null","",NA,NA,NA,NA,""
"image-keyboard-response",46,98378,"0.0-3.11-2.11","vz8ybgzn49g3kyv",174,"55.csv","","null","resources/images/coin2.png","null","",NA,NA,NA,NA,""
"image-keyboard-response",47,98677,"0.0-3.12-0.12","vz8ybgzn49g3kyv",174,"55.csv","","296.99999999998545","resources/trios/L1T2A2.jpg","38","restless",0.3,0.8,0.7,0.521000850933768,"true"
"image-keyboard-response",48,99080,"0.0-3.12-1.12","vz8ybgzn49g3kyv",174,"55.csv","","null","resources/maskTrios/BT2B.jpg","null","",NA,NA,NA,NA,""
"image-keyboard-response",49,100283,"0.0-3.12-2.12","vz8ybgzn49g3kyv",174,"55.csv","","null","resources/images/coin2.png","null","",NA,NA,NA,NA,""
"image-keyboard-response",50,100776,"0.0-3.13-0.13","vz8ybgzn49g3kyv",174,"55.csv","","490.00000000001455","resources/trios/L1T2A2.jpg","37","restless",0.3,0.8,0.7,0.608320797761072,"false"
"image-keyboard-response",51,101179,"0.0-3.13-1.13","vz8ybgzn49g3kyv",174,"55.csv","","null","resources/maskTrios/L1BB.jpg","null","",NA,NA,NA,NA,""
"image-keyboard-response",52,102382,"0.0-3.13-2.13","vz8ybgzn49g3kyv",174,"55.csv","","null","resources/images/fishbone.png","null","",NA,NA,NA,NA,""
"image-keyboard-response",53,102687,"0.0-3.14-0.14","vz8ybgzn49g3kyv",174,"55.csv","","304","resources/trios/L2T2A2.jpg","38","restless",0.3,0.8,0.7,0.217761002311471,"true"
"image-keyboard-response",54,103090,"0.0-3.14-1.14","vz8ybgzn49g3kyv",174,"55.csv","","null","resources/maskTrios/BT2B.jpg","null","",NA,NA,NA,NA,""
"image-keyboard-response",55,104293,"0.0-3.14-2.14","vz8ybgzn49g3kyv",174,"55.csv","","null","resources/images/coin2.png","null","",NA,NA,NA,NA,""
"image-keyboard-response",56,104581,"0.0-3.15-0.15","vz8ybgzn49g3kyv",174,"55.csv","","286","resources/trios/L2T2A1.jpg","39","restless",0.3,0.8,0.7,0.758492112654255,"false"
"image-keyboard-response",57,104984,"0.0-3.15-1.15","vz8ybgzn49g3kyv",174,"55.csv","","null","resources/maskTrios/BBA1.jpg","null","",NA,NA,NA,NA,""
"image-keyboard-response",58,106186,"0.0-3.15-2.15","vz8ybgzn49g3kyv",174,"55.csv","","null","resources/images/fishbone.png","null","",NA,NA,NA,NA,""
"image-keyboard-response",59,106545,"0.0-3.16-0.16","vz8ybgzn49g3kyv",174,"55.csv","","353.00000000001455","resources/trios/L1T4A2.jpg","38","restless",0.3,0.8,0.7,0.390615152866476,"true"
"image-keyboard-response",60,106949,"0.0-3.16-1.16","vz8ybgzn49g3kyv",174,"55.csv","","null","resources/maskTrios/BT4B.jpg","null","",NA,NA,NA,NA,""
"image-keyboard-response",61,108152,"0.0-3.16-2.16","vz8ybgzn49g3kyv",174,"55.csv","","null","resources/images/coin2.png","null","",NA,NA,NA,NA,""
"image-keyboard-response",62,108610,"0.0-3.17-0.17","vz8ybgzn49g3kyv",174,"55.csv","","455","resources/trios/L2T4A1.jpg","38","restless",0.4,0.8,0.7,0.167972943072086,"true"
"image-keyboard-response",63,109013,"0.0-3.17-1.17","vz8ybgzn49g3kyv",174,"55.csv","","null","resources/maskTrios/BT4B.jpg","null","",NA,NA,NA,NA,""
"image-keyboard-response",64,110216,"0.0-3.17-2.17","vz8ybgzn49g3kyv",174,"55.csv","","null","resources/images/coin2.png","null","",NA,NA,NA,NA,""
"image-keyboard-response",65,110692,"0.0-3.18-0.18","vz8ybgzn49g3kyv",174,"55.csv","","474","resources/trios/L2T2A1.jpg","38","restless",0.4,0.7,0.7,0.887761983921827,"false"
"image-keyboard-response",66,111095,"0.0-3.18-1.18","vz8ybgzn49g3kyv",174,"55.csv","","null","resources/maskTrios/BT2B.jpg","null","",NA,NA,NA,NA,""
"image-keyboard-response",67,112298,"0.0-3.18-2.18","vz8ybgzn49g3kyv",174,"55.csv","","null","resources/images/fishbone.png","null","",NA,NA,NA,NA,""
"image-keyboard-response",68,113526,"0.0-3.19-0.19","vz8ybgzn49g3kyv",174,"55.csv","","1226","resources/trios/L1T2A1.jpg","39","restless",0.4,0.6,0.7,0.6477568279973,"true"
"image-keyboard-response",69,113929,"0.0-3.19-1.19","vz8ybgzn49g3kyv",174,"55.csv","","null","resources/maskTrios/BBA1.jpg","null","",NA,NA,NA,NA,""
"image-keyboard-response",70,115132,"0.0-3.19-2.19","vz8ybgzn49g3kyv",174,"55.csv","","null","resources/images/coin2.png","null","",NA,NA,NA,NA,""
"image-keyboard-response",71,115850,"0.0-3.20-0.20","vz8ybgzn49g3kyv",174,"55.csv","","716","resources/trios/L2T4A2.jpg","39","restless",0.4,0.6,0.7,0.0388087230115497,"true"
"image-keyboard-response",72,116253,"0.0-3.20-1.20","vz8ybgzn49g3kyv",174,"55.csv","","null","resources/maskTrios/BBA2.jpg","null","",NA,NA,NA,NA,""
"image-keyboard-response",73,117455,"0.0-3.20-2.20","vz8ybgzn49g3kyv",174,"55.csv","","null","resources/images/coin2.png","null","",NA,NA,NA,NA,""
"image-keyboard-response",74,118040,"0.0-3.21-0.21","vz8ybgzn49g3kyv",174,"55.csv","","582","resources/trios/L1T2A1.jpg","37","restless",0.4,0.6,0.7,0.136664440377996,"true"
"image-keyboard-response",75,118443,"0.0-3.21-1.21","vz8ybgzn49g3kyv",174,"55.csv","","null","resources/maskTrios/L1BB.jpg","null","",NA,NA,NA,NA,""
"image-keyboard-response",76,119646,"0.0-3.21-2.21","vz8ybgzn49g3kyv",174,"55.csv","","null","resources/images/coin2.png","null","",NA,NA,NA,NA,""
"image-keyboard-response",77,121385,"0.0-3.22-0.22","vz8ybgzn49g3kyv",174,"55.csv","","1738","resources/trios/L2T4A2.jpg","38","restless",0.4,0.6,0.7,0.252356162902848,"true"
"image-keyboard-response",78,121789,"0.0-3.22-1.22","vz8ybgzn49g3kyv",174,"55.csv","","null","resources/maskTrios/BT4B.jpg","null","",NA,NA,NA,NA,""
"image-keyboard-response",79,122991,"0.0-3.22-2.22","vz8ybgzn49g3kyv",174,"55.csv","","null","resources/images/coin2.png","null","",NA,NA,NA,NA,""
"image-keyboard-response",80,123657,"0.0-3.23-0.23","vz8ybgzn49g3kyv",174,"55.csv","","663","resources/trios/L2T2A2.jpg","39","restless",0.4,0.6,0.7,0.090237172493226,"true"
"image-keyboard-response",81,124060,"0.0-3.23-1.23","vz8ybgzn49g3kyv",174,"55.csv","","null","resources/maskTrios/BBA2.jpg","null","",NA,NA,NA,NA,""
"image-keyboard-response",82,125263,"0.0-3.23-2.23","vz8ybgzn49g3kyv",174,"55.csv","","null","resources/images/coin2.png","null","",NA,NA,NA,NA,""
"image-keyboard-response",83,126046,"0.0-3.24-0.24","vz8ybgzn49g3kyv",174,"55.csv","","782.0000000000146","resources/trios/L2T4A1.jpg","38","restless",0.4,0.6,0.7,0.244221583966762,"true"
"image-keyboard-response",84,126449,"0.0-3.24-1.24","vz8ybgzn49g3kyv",174,"55.csv","","null","resources/maskTrios/BT4B.jpg","null","",NA,NA,NA,NA,""
"image-keyboard-response",85,127652,"0.0-3.24-2.24","vz8ybgzn49g3kyv",174,"55.csv","","null","resources/images/coin2.png","null","",NA,NA,NA,NA,""
"image-keyboard-response",86,128096,"0.0-3.25-0.25","vz8ybgzn49g3kyv",174,"55.csv","","441.0000000000291","resources/trios/L1T2A2.jpg","37","restless",0.4,0.6,0.7,0.938009511448465,"false"
"image-keyboard-response",87,128499,"0.0-3.25-1.25","vz8ybgzn49g3kyv",174,"55.csv","","null","resources/maskTrios/L1BB.jpg","null","",NA,NA,NA,NA,""
"image-keyboard-response",88,129701,"0.0-3.25-2.25","vz8ybgzn49g3kyv",174,"55.csv","","null","resources/images/fishbone.png","null","",NA,NA,NA,NA,""
"image-keyboard-response",89,131018,"0.0-3.26-0.26","vz8ybgzn49g3kyv",174,"55.csv","","1315","resources/trios/L2T4A1.jpg","39","restless",0.4,0.6,0.7,0.768454246127146,"false"
"image-keyboard-response",90,131422,"0.0-3.26-1.26","vz8ybgzn49g3kyv",174,"55.csv","","null","resources/maskTrios/BBA1.jpg","null","",NA,NA,NA,NA,""
"image-keyboard-response",91,132624,"0.0-3.26-2.26","vz8ybgzn49g3kyv",174,"55.csv","","null","resources/images/fishbone.png","null","",NA,NA,NA,NA,""
"image-keyboard-response",92,132916,"0.0-3.27-0.27","vz8ybgzn49g3kyv",174,"55.csv","","289","resources/trios/L1T2A1.jpg","38","restless",0.4,0.6,0.7,0.989902683086231,"false"
"image-keyboard-response",93,133319,"0.0-3.27-1.27","vz8ybgzn49g3kyv",174,"55.csv","","null","resources/maskTrios/BT2B.jpg","null","",NA,NA,NA,NA,""
"image-keyboard-response",94,134522,"0.0-3.27-2.27","vz8ybgzn49g3kyv",174,"55.csv","","null","resources/images/fishbone.png","null","",NA,NA,NA,NA,""
"image-keyboard-response",95,134961,"0.0-3.28-0.28","vz8ybgzn49g3kyv",174,"55.csv","","438","resources/trios/L2T4A1.jpg","37","restless",0.4,0.6,0.8,0.911317318899863,"false"
"image-keyboard-response",96,135364,"0.0-3.28-1.28","vz8ybgzn49g3kyv",174,"55.csv","","null","resources/maskTrios/L2BB.jpg","null","",NA,NA,NA,NA,""
"image-keyboard-response",97,136567,"0.0-3.28-2.28","vz8ybgzn49g3kyv",174,"55.csv","","null","resources/images/fishbone.png","null","",NA,NA,NA,NA,""
"image-keyboard-response",98,137211,"0.0-3.29-0.29","vz8ybgzn49g3kyv",174,"55.csv","","642","resources/trios/L2T2A2.jpg","38","restless",0.4,0.6,0.8,0.00339891535568426,"true"
"image-keyboard-response",99,137614,"0.0-3.29-1.29","vz8ybgzn49g3kyv",174,"55.csv","","null","resources/maskTrios/BT2B.jpg","null","",NA,NA,NA,NA,""
"image-keyboard-response",100,138817,"0.0-3.29-2.29","vz8ybgzn49g3kyv",174,"55.csv","","null","resources/images/coin2.png","null","",NA,NA,NA,NA,""
"image-keyboard-response",101,139076,"0.0-3.30-0.30","vz8ybgzn49g3kyv",174,"55.csv","","258","resources/trios/L1T2A2.jpg","39","restless",0.4,0.6,0.8,0.177482666292519,"true"
"image-keyboard-response",102,139479,"0.0-3.30-1.30","vz8ybgzn49g3kyv",174,"55.csv","","null","resources/maskTrios/BBA2.jpg","null","",NA,NA,NA,NA,""
"image-keyboard-response",103,140682,"0.0-3.30-2.30","vz8ybgzn49g3kyv",174,"55.csv","","null","resources/images/coin2.png","null","",NA,NA,NA,NA,""
"image-keyboard-response",104,141810,"0.0-3.31-0.31","vz8ybgzn49g3kyv",174,"55.csv","","1126","resources/trios/L2T4A2.jpg","37","restless",0.4,0.6,0.7,0.101661799742251,"true"
"image-keyboard-response",105,142213,"0.0-3.31-1.31","vz8ybgzn49g3kyv",174,"55.csv","","null","resources/maskTrios/L2BB.jpg","null","",NA,NA,NA,NA,""
"image-keyboard-response",106,143416,"0.0-3.31-2.31","vz8ybgzn49g3kyv",174,"55.csv","","null","resources/images/coin2.png","null","",NA,NA,NA,NA,""
"image-keyboard-response",107,143977,"0.0-3.32-0.32","vz8ybgzn49g3kyv",174,"55.csv","","560","resources/trios/L2T2A1.jpg","39","restless",0.4,0.6,0.7,0.60628990121074,"true"
"image-keyboard-response",108,144380,"0.0-3.32-1.32","vz8ybgzn49g3kyv",174,"55.csv","","null","resources/maskTrios/BBA1.jpg","null","",NA,NA,NA,NA,""
"image-keyboard-response",109,145583,"0.0-3.32-2.32","vz8ybgzn49g3kyv",174,"55.csv","","null","resources/images/coin2.png","null","",NA,NA,NA,NA,""
"image-keyboard-response",110,146053,"0.0-3.33-0.33","vz8ybgzn49g3kyv",174,"55.csv","","468","resources/trios/L2T2A2.jpg","38","restless",0.4,0.6,0.7,0.525266566970506,"true"
"image-keyboard-response",111,146456,"0.0-3.33-1.33","vz8ybgzn49g3kyv",174,"55.csv","","null","resources/maskTrios/BT2B.jpg","null","",NA,NA,NA,NA,""
"image-keyboard-response",112,147659,"0.0-3.33-2.33","vz8ybgzn49g3kyv",174,"55.csv","","null","resources/images/coin2.png","null","",NA,NA,NA,NA,""
"image-keyboard-response",113,148005,"0.0-3.34-0.34","vz8ybgzn49g3kyv",174,"55.csv","","344","resources/trios/L2T4A1.jpg","38","restless",0.4,0.6,0.7,0.124653753225456,"true"
"image-keyboard-response",114,148408,"0.0-3.34-1.34","vz8ybgzn49g3kyv",174,"55.csv","","null","resources/maskTrios/BT4B.jpg","null","",NA,NA,NA,NA,""
"image-keyboard-response",115,149611,"0.0-3.34-2.34","vz8ybgzn49g3kyv",174,"55.csv","","null","resources/images/coin2.png","null","",NA,NA,NA,NA,""
"image-keyboard-response",116,150731,"0.0-3.35-0.35","vz8ybgzn49g3kyv",174,"55.csv","","1117.999999999971","resources/trios/L1T4A1.jpg","39","restless",0.4,0.6,0.7,0.735160146948931,"false"
"image-keyboard-response",117,151134,"0.0-3.35-1.35","vz8ybgzn49g3kyv",174,"55.csv","","null","resources/maskTrios/BBA1.jpg","null","",NA,NA,NA,NA,""
"image-keyboard-response",118,152337,"0.0-3.35-2.35","vz8ybgzn49g3kyv",174,"55.csv","","null","resources/images/fishbone.png","null","",NA,NA,NA,NA,""
"image-keyboard-response",119,152620,"0.0-3.36-0.36","vz8ybgzn49g3kyv",174,"55.csv","","282","resources/trios/L2T2A1.jpg","37","restless",0.4,0.6,0.7,0.143275208264687,"true"
"image-keyboard-response",120,153023,"0.0-3.36-1.36","vz8ybgzn49g3kyv",174,"55.csv","","null","resources/maskTrios/L2BB.jpg","null","",NA,NA,NA,NA,""
"image-keyboard-response",121,154225,"0.0-3.36-2.36","vz8ybgzn49g3kyv",174,"55.csv","","null","resources/images/coin2.png","null","",NA,NA,NA,NA,""
"image-keyboard-response",122,154753,"0.0-3.37-0.37","vz8ybgzn49g3kyv",174,"55.csv","","526","resources/trios/L1T4A2.jpg","37","restless",0.4,0.6,0.7,0.558330226130195,"false"
"image-keyboard-response",123,155156,"0.0-3.37-1.37","vz8ybgzn49g3kyv",174,"55.csv","","null","resources/maskTrios/L1BB.jpg","null","",NA,NA,NA,NA,""
"image-keyboard-response",124,156359,"0.0-3.37-2.37","vz8ybgzn49g3kyv",174,"55.csv","","null","resources/images/fishbone.png","null","",NA,NA,NA,NA,""
"image-keyboard-response",125,156376,"0.0-3.38-0.38","vz8ybgzn49g3kyv",174,"55.csv","","15","resources/trios/L1T4A2.jpg","38","restless",0.4,0.6,0.7,0.147931203231289,"true"
"image-keyboard-response",126,156778,"0.0-3.38-1.38","vz8ybgzn49g3kyv",174,"55.csv","","null","resources/maskTrios/BT4B.jpg","null","",NA,NA,NA,NA,""
"image-keyboard-response",127,157980,"0.0-3.38-2.38","vz8ybgzn49g3kyv",174,"55.csv","","null","resources/images/coin2.png","null","",NA,NA,NA,NA,""
"image-keyboard-response",128,158933,"0.0-3.39-0.39","vz8ybgzn49g3kyv",174,"55.csv","","950.9999999999709","resources/trios/L1T4A2.jpg","39","restless",0.4,0.6,0.7,0.45145860202121,"true"
"image-keyboard-response",129,159336,"0.0-3.39-1.39","vz8ybgzn49g3kyv",174,"55.csv","","null","resources/maskTrios/BBA2.jpg","null","",NA,NA,NA,NA,""
"image-keyboard-response",130,160539,"0.0-3.39-2.39","vz8ybgzn49g3kyv",174,"55.csv","","null","resources/images/coin2.png","null","",NA,NA,NA,NA,""
"image-keyboard-response",131,161528,"0.0-3.40-0.40","vz8ybgzn49g3kyv",174,"55.csv","","987","resources/trios/L1T4A2.jpg","39","restless",0.4,0.6,0.7,0.875657930831931,"false"
"image-keyboard-response",132,161931,"0.0-3.40-1.40","vz8ybgzn49g3kyv",174,"55.csv","","null","resources/maskTrios/BBA2.jpg","null","",NA,NA,NA,NA,""
"image-keyboard-response",133,163134,"0.0-3.40-2.40","vz8ybgzn49g3kyv",174,"55.csv","","null","resources/images/fishbone.png","null","",NA,NA,NA,NA,""
"image-keyboard-response",134,163577,"0.0-3.41-0.41","vz8ybgzn49g3kyv",174,"55.csv","","442.0000000000291","resources/trios/L2T4A1.jpg","37","restless",0.4,0.6,0.7,0.40300086135289,"false"
"image-keyboard-response",135,163980,"0.0-3.41-1.41","vz8ybgzn49g3kyv",174,"55.csv","","null","resources/maskTrios/L2BB.jpg","null","",NA,NA,NA,NA,""
"image-keyboard-response",136,165182,"0.0-3.41-2.41","vz8ybgzn49g3kyv",174,"55.csv","","null","resources/images/fishbone.png","null","",NA,NA,NA,NA,""
"image-keyboard-response",137,165455,"0.0-3.42-0.42","vz8ybgzn49g3kyv",174,"55.csv","","271","resources/trios/L1T4A2.jpg","38","restless",0.4,0.6,0.6,0.171579863571202,"true"
"image-keyboard-response",138,165858,"0.0-3.42-1.42","vz8ybgzn49g3kyv",174,"55.csv","","null","resources/maskTrios/BT4B.jpg","null","",NA,NA,NA,NA,""
"image-keyboard-response",139,167061,"0.0-3.42-2.42","vz8ybgzn49g3kyv",174,"55.csv","","null","resources/images/coin2.png","null","",NA,NA,NA,NA,""
"image-keyboard-response",140,167544,"0.0-3.43-0.43","vz8ybgzn49g3kyv",174,"55.csv","","481","resources/trios/L2T4A2.jpg","39","restless",0.4,0.6,0.6,0.8953172476477,"false"
"image-keyboard-response",141,167947,"0.0-3.43-1.43","vz8ybgzn49g3kyv",174,"55.csv","","null","resources/maskTrios/BBA2.jpg","null","",NA,NA,NA,NA,""
"image-keyboard-response",142,169150,"0.0-3.43-2.43","vz8ybgzn49g3kyv",174,"55.csv","","null","resources/images/fishbone.png","null","",NA,NA,NA,NA,""
"image-keyboard-response",143,169611,"0.0-3.44-0.44","vz8ybgzn49g3kyv",174,"55.csv","","459","resources/trios/L2T4A2.jpg","37","restless",0.4,0.6,0.6,0.211796182260372,"true"
"image-keyboard-response",144,170014,"0.0-3.44-1.44","vz8ybgzn49g3kyv",174,"55.csv","","null","resources/maskTrios/L2BB.jpg","null","",NA,NA,NA,NA,""
"image-keyboard-response",145,171217,"0.0-3.44-2.44","vz8ybgzn49g3kyv",174,"55.csv","","null","resources/images/coin2.png","null","",NA,NA,NA,NA,""
"image-keyboard-response",146,171683,"0.0-3.45-0.45","vz8ybgzn49g3kyv",174,"55.csv","","464","resources/trios/L1T4A1.jpg","38","restless",0.5,0.6,0.6,0.303620447260575,"true"
"image-keyboard-response",147,172086,"0.0-3.45-1.45","vz8ybgzn49g3kyv",174,"55.csv","","null","resources/maskTrios/BT4B.jpg","null","",NA,NA,NA,NA,""
"image-keyboard-response",148,173289,"0.0-3.45-2.45","vz8ybgzn49g3kyv",174,"55.csv","","null","resources/images/coin2.png","null","",NA,NA,NA,NA,""
"image-keyboard-response",149,173591,"0.0-3.46-0.46","vz8ybgzn49g3kyv",174,"55.csv","","301","resources/trios/L2T4A1.jpg","38","restless",0.5,0.6,0.6,0.608598900388393,"false"
"image-keyboard-response",150,173994,"0.0-3.46-1.46","vz8ybgzn49g3kyv",174,"55.csv","","null","resources/maskTrios/BT4B.jpg","null","",NA,NA,NA,NA,""
"image-keyboard-response",151,175197,"0.0-3.46-2.46","vz8ybgzn49g3kyv",174,"55.csv","","null","resources/images/fishbone.png","null","",NA,NA,NA,NA,""
"image-keyboard-response",152,175788,"0.0-3.47-0.47","vz8ybgzn49g3kyv",174,"55.csv","","589","resources/trios/L1T2A1.jpg","39","restless",0.5,0.6,0.6,0.0356000337528128,"true"
"image-keyboard-response",153,176191,"0.0-3.47-1.47","vz8ybgzn49g3kyv",174,"55.csv","","null","resources/maskTrios/BBA1.jpg","null","",NA,NA,NA,NA,""
"image-keyboard-response",154,177394,"0.0-3.47-2.47","vz8ybgzn49g3kyv",174,"55.csv","","null","resources/images/coin2.png","null","",NA,NA,NA,NA,""
"image-keyboard-response",155,178107,"0.0-3.48-0.48","vz8ybgzn49g3kyv",174,"55.csv","","711.0000000000291","resources/trios/L1T4A1.jpg","37","restless",0.5,0.6,0.6,0.253582066263505,"true"
"image-keyboard-response",156,178510,"0.0-3.48-1.48","vz8ybgzn49g3kyv",174,"55.csv","","null","resources/maskTrios/L1BB.jpg","null","",NA,NA,NA,NA,""
"image-keyboard-response",157,179713,"0.0-3.48-2.48","vz8ybgzn49g3kyv",174,"55.csv","","null","resources/images/coin2.png","null","",NA,NA,NA,NA,""
"image-keyboard-response",158,180246,"0.0-3.49-0.49","vz8ybgzn49g3kyv",174,"55.csv","","531","resources/trios/L1T2A2.jpg","38","restless",0.5,0.6,0.6,0.197437765029488,"true"
"image-keyboard-response",159,180649,"0.0-3.49-1.49","vz8ybgzn49g3kyv",174,"55.csv","","null","resources/maskTrios/BT2B.jpg","null","",NA,NA,NA,NA,""
"image-keyboard-response",160,181852,"0.0-3.49-2.49","vz8ybgzn49g3kyv",174,"55.csv","","null","resources/images/coin2.png","null","",NA,NA,NA,NA,""
"image-keyboard-response",161,182415,"0.0-3.50-0.50","vz8ybgzn49g3kyv",174,"55.csv","","561","resources/trios/L1T4A1.jpg","39","restless",0.5,0.6,0.6,0.329577526012844,"true"
"image-keyboard-response",162,182818,"0.0-3.50-1.50","vz8ybgzn49g3kyv",174,"55.csv","","null","resources/maskTrios/BBA1.jpg","null","",NA,NA,NA,NA,""
"image-keyboard-response",163,184024,"0.0-3.50-2.50","vz8ybgzn49g3kyv",174,"55.csv","","null","resources/images/coin2.png","null","",NA,NA,NA,NA,""
"image-keyboard-response",164,184448,"0.0-3.51-0.51","vz8ybgzn49g3kyv",174,"55.csv","","420","resources/trios/L2T2A2.jpg","37","restless",0.5,0.6,0.5,0.0327460668384575,"true"
"image-keyboard-response",165,184852,"0.0-3.51-1.51","vz8ybgzn49g3kyv",174,"55.csv","","null","resources/maskTrios/L2BB.jpg","null","",NA,NA,NA,NA,""
"image-keyboard-response",166,186054,"0.0-3.51-2.51","vz8ybgzn49g3kyv",174,"55.csv","","null","resources/images/coin2.png","null","",NA,NA,NA,NA,""
"image-keyboard-response",167,186377,"0.0-3.52-0.52","vz8ybgzn49g3kyv",174,"55.csv","","320","resources/trios/L2T4A2.jpg","38","restless",0.5,0.6,0.4,0.393370624218634,"true"
"image-keyboard-response",168,186780,"0.0-3.52-1.52","vz8ybgzn49g3kyv",174,"55.csv","","null","resources/maskTrios/BT4B.jpg","null","",NA,NA,NA,NA,""
"image-keyboard-response",169,187983,"0.0-3.52-2.52","vz8ybgzn49g3kyv",174,"55.csv","","null","resources/images/coin2.png","null","",NA,NA,NA,NA,""
"image-keyboard-response",170,188320,"0.0-3.53-0.53","vz8ybgzn49g3kyv",174,"55.csv","","336.0000000000291","resources/trios/L2T2A2.jpg","39","restless",0.5,0.6,0.4,0.459981915014816,"false"
"image-keyboard-response",171,188723,"0.0-3.53-1.53","vz8ybgzn49g3kyv",174,"55.csv","","null","resources/maskTrios/BBA2.jpg","null","",NA,NA,NA,NA,""
"image-keyboard-response",172,189926,"0.0-3.53-2.53","vz8ybgzn49g3kyv",174,"55.csv","","null","resources/images/fishbone.png","null","",NA,NA,NA,NA,""
"image-keyboard-response",173,191151,"0.0-3.54-0.54","vz8ybgzn49g3kyv",174,"55.csv","","1222","resources/trios/L2T2A2.jpg","38","restless",0.5,0.6,0.4,0.544284554636278,"true"
"image-keyboard-response",174,191554,"0.0-3.54-1.54","vz8ybgzn49g3kyv",174,"55.csv","","null","resources/maskTrios/BT2B.jpg","null","",NA,NA,NA,NA,""
"image-keyboard-response",175,192757,"0.0-3.54-2.54","vz8ybgzn49g3kyv",174,"55.csv","","null","resources/images/coin2.png","null","",NA,NA,NA,NA,""
"image-keyboard-response",176,193010,"0.0-3.55-0.55","vz8ybgzn49g3kyv",174,"55.csv","","250","resources/trios/L1T4A2.jpg","37","restless",0.5,0.6,0.4,0.181032083241267,"true"
"image-keyboard-response",177,193413,"0.0-3.55-1.55","vz8ybgzn49g3kyv",174,"55.csv","","null","resources/maskTrios/L1BB.jpg","null","",NA,NA,NA,NA,""
"image-keyboard-response",178,194616,"0.0-3.55-2.55","vz8ybgzn49g3kyv",174,"55.csv","","null","resources/images/coin2.png","null","",NA,NA,NA,NA,""
"image-keyboard-response",179,195128,"0.0-3.56-0.56","vz8ybgzn49g3kyv",174,"55.csv","","508","resources/trios/L2T2A1.jpg","38","restless",0.5,0.5,0.4,0.774735577352199,"false"
"image-keyboard-response",180,195531,"0.0-3.56-1.56","vz8ybgzn49g3kyv",174,"55.csv","","null","resources/maskTrios/BT2B.jpg","null","",NA,NA,NA,NA,""
"image-keyboard-response",181,196734,"0.0-3.56-2.56","vz8ybgzn49g3kyv",174,"55.csv","","null","resources/images/fishbone.png","null","",NA,NA,NA,NA,""
"image-keyboard-response",182,197249,"0.0-3.57-0.57","vz8ybgzn49g3kyv",174,"55.csv","","512","resources/trios/L2T2A2.jpg","37","restless",0.6,0.5,0.4,0.736010985437553,"false"
"image-keyboard-response",183,197652,"0.0-3.57-1.57","vz8ybgzn49g3kyv",174,"55.csv","","null","resources/maskTrios/L2BB.jpg","null","",NA,NA,NA,NA,""
"image-keyboard-response",184,198855,"0.0-3.57-2.57","vz8ybgzn49g3kyv",174,"55.csv","","null","resources/images/fishbone.png","null","",NA,NA,NA,NA,""
"image-keyboard-response",185,199036,"0.0-3.58-0.58","vz8ybgzn49g3kyv",174,"55.csv","","179","resources/trios/L2T4A1.jpg","39","restless",0.5,0.5,0.4,0.385617490628261,"true"
"image-keyboard-response",186,199439,"0.0-3.58-1.58","vz8ybgzn49g3kyv",174,"55.csv","","null","resources/maskTrios/BBA1.jpg","null","",NA,NA,NA,NA,""
"image-keyboard-response",187,200642,"0.0-3.58-2.58","vz8ybgzn49g3kyv",174,"55.csv","","null","resources/images/coin2.png","null","",NA,NA,NA,NA,""
"image-keyboard-response",188,200896,"0.0-3.59-0.59","vz8ybgzn49g3kyv",174,"55.csv","","252","resources/trios/L1T4A2.jpg","38","restless",0.5,0.5,0.4,0.928086990000736,"false"
"image-keyboard-response",189,201299,"0.0-3.59-1.59","vz8ybgzn49g3kyv",174,"55.csv","","null","resources/maskTrios/BT4B.jpg","null","",NA,NA,NA,NA,""
"image-keyboard-response",190,202502,"0.0-3.59-2.59","vz8ybgzn49g3kyv",174,"55.csv","","null","resources/images/fishbone.png","null","",NA,NA,NA,NA,""
"image-keyboard-response",191,203551,"0.0-3.60-0.60","vz8ybgzn49g3kyv",174,"55.csv","","1046","resources/trios/L1T2A2.jpg","38","restless",0.5,0.5,0.4,0.28534858259155,"true"
"image-keyboard-response",192,203954,"0.0-3.60-1.60","vz8ybgzn49g3kyv",174,"55.csv","","null","resources/maskTrios/BT2B.jpg","null","",NA,NA,NA,NA,""
"image-keyboard-response",193,205157,"0.0-3.60-2.60","vz8ybgzn49g3kyv",174,"55.csv","","null","resources/images/coin2.png","null","",NA,NA,NA,NA,""
"image-keyboard-response",194,205435,"0.0-3.61-0.61","vz8ybgzn49g3kyv",174,"55.csv","","275","resources/trios/L1T2A2.jpg","39","restless",0.5,0.5,0.5,0.498614291410967,"true"
"image-keyboard-response",195,205838,"0.0-3.61-1.61","vz8ybgzn49g3kyv",174,"55.csv","","null","resources/maskTrios/BBA2.jpg","null","",NA,NA,NA,NA,""
"image-keyboard-response",196,207041,"0.0-3.61-2.61","vz8ybgzn49g3kyv",174,"55.csv","","null","resources/images/coin2.png","null","",NA,NA,NA,NA,""
"image-keyboard-response",197,207395,"0.0-3.62-0.62","vz8ybgzn49g3kyv",174,"55.csv","","353","resources/trios/L1T2A2.jpg","37","restless",0.5,0.5,0.5,0.0760990191969608,"true"
"image-keyboard-response",198,207798,"0.0-3.62-1.62","vz8ybgzn49g3kyv",174,"55.csv","","null","resources/maskTrios/L1BB.jpg","null","",NA,NA,NA,NA,""
"image-keyboard-response",199,209001,"0.0-3.62-2.62","vz8ybgzn49g3kyv",174,"55.csv","","null","resources/images/coin2.png","null","",NA,NA,NA,NA,""
"image-keyboard-response",200,209351,"0.0-3.63-0.63","vz8ybgzn49g3kyv",174,"55.csv","","348.0000000000291","resources/trios/L1T4A1.jpg","38","restless",0.5,0.5,0.5,0.835254990957766,"false"
"image-keyboard-response",201,209754,"0.0-3.63-1.63","vz8ybgzn49g3kyv",174,"55.csv","","null","resources/maskTrios/BT4B.jpg","null","",NA,NA,NA,NA,""
"image-keyboard-response",202,210956,"0.0-3.63-2.63","vz8ybgzn49g3kyv",174,"55.csv","","null","resources/images/fishbone.png","null","",NA,NA,NA,NA,""
"image-keyboard-response",203,211137,"0.0-3.64-0.64","vz8ybgzn49g3kyv",174,"55.csv","","178.0000000000291","resources/trios/L2T2A2.jpg","37","restless",0.5,0.5,0.5,0.864734109962206,"false"
"image-keyboard-response",204,211540,"0.0-3.64-1.64","vz8ybgzn49g3kyv",174,"55.csv","","null","resources/maskTrios/L2BB.jpg","null","",NA,NA,NA,NA,""
"image-keyboard-response",205,212744,"0.0-3.64-2.64","vz8ybgzn49g3kyv",174,"55.csv","","null","resources/images/fishbone.png","null","",NA,NA,NA,NA,""
"image-keyboard-response",206,212881,"0.0-3.65-0.65","vz8ybgzn49g3kyv",174,"55.csv","","135","resources/trios/L2T2A2.jpg","39","restless",0.5,0.5,0.5,0.462772176197832,"true"
"image-keyboard-response",207,213284,"0.0-3.65-1.65","vz8ybgzn49g3kyv",174,"55.csv","","null","resources/maskTrios/BBA2.jpg","null","",NA,NA,NA,NA,""
"image-keyboard-response",208,214487,"0.0-3.65-2.65","vz8ybgzn49g3kyv",174,"55.csv","","null","resources/images/coin2.png","null","",NA,NA,NA,NA,""
"image-keyboard-response",209,214866,"0.0-3.66-0.66","vz8ybgzn49g3kyv",174,"55.csv","","375","resources/trios/L1T4A2.jpg","38","restless",0.5,0.5,0.5,0.465867417828081,"true"
"image-keyboard-response",210,215270,"0.0-3.66-1.66","vz8ybgzn49g3kyv",174,"55.csv","","null","resources/maskTrios/BT4B.jpg","null","",NA,NA,NA,NA,""
"image-keyboard-response",211,216473,"0.0-3.66-2.66","vz8ybgzn49g3kyv",174,"55.csv","","null","resources/images/coin2.png","null","",NA,NA,NA,NA,""
"image-keyboard-response",212,217101,"0.0-3.67-0.67","vz8ybgzn49g3kyv",174,"55.csv","","625.9999999999709","resources/trios/L1T4A2.jpg","39","restless",0.4,0.5,0.5,0.904918052007618,"false"
"image-keyboard-response",213,217504,"0.0-3.67-1.67","vz8ybgzn49g3kyv",174,"55.csv","","null","resources/maskTrios/BBA2.jpg","null","",NA,NA,NA,NA,""
"image-keyboard-response",214,218707,"0.0-3.67-2.67","vz8ybgzn49g3kyv",174,"55.csv","","null","resources/images/fishbone.png","null","",NA,NA,NA,NA,""
"image-keyboard-response",215,219001,"0.0-3.68-0.68","vz8ybgzn49g3kyv",174,"55.csv","","292","resources/trios/L1T2A1.jpg","37","restless",0.4,0.5,0.5,0.97157632859114,"false"
"image-keyboard-response",216,219404,"0.0-3.68-1.68","vz8ybgzn49g3kyv",174,"55.csv","","null","resources/maskTrios/L1BB.jpg","null","",NA,NA,NA,NA,""
"image-keyboard-response",217,220606,"0.0-3.68-2.68","vz8ybgzn49g3kyv",174,"55.csv","","null","resources/images/fishbone.png","null","",NA,NA,NA,NA,""
"image-keyboard-response",218,220812,"0.0-3.69-0.69","vz8ybgzn49g3kyv",174,"55.csv","","203","resources/trios/L2T4A2.jpg","38","restless",0.5,0.5,0.5,0.279555986628036,"true"
"image-keyboard-response",219,221215,"0.0-3.69-1.69","vz8ybgzn49g3kyv",174,"55.csv","","null","resources/maskTrios/BT4B.jpg","null","",NA,NA,NA,NA,""
"image-keyboard-response",220,222418,"0.0-3.69-2.69","vz8ybgzn49g3kyv",174,"55.csv","","null","resources/images/coin2.png","null","",NA,NA,NA,NA,""
"image-keyboard-response",221,222704,"0.0-3.70-0.70","vz8ybgzn49g3kyv",174,"55.csv","","284","resources/trios/L1T2A1.jpg","38","restless",0.5,0.5,0.5,0.867710548243482,"false"
"image-keyboard-response",222,223108,"0.0-3.70-1.70","vz8ybgzn49g3kyv",174,"55.csv","","null","resources/maskTrios/BT2B.jpg","null","",NA,NA,NA,NA,""
"image-keyboard-response",223,224312,"0.0-3.70-2.70","vz8ybgzn49g3kyv",174,"55.csv","","null","resources/images/fishbone.png","null","",NA,NA,NA,NA,""
"image-keyboard-response",224,224994,"0.0-3.71-0.71","vz8ybgzn49g3kyv",174,"55.csv","","679.9999999999709","resources/trios/L1T4A2.jpg","39","restless",0.5,0.5,0.5,0.737158821316482,"false"
"image-keyboard-response",225,225397,"0.0-3.71-1.71","vz8ybgzn49g3kyv",174,"55.csv","","null","resources/maskTrios/BBA2.jpg","null","",NA,NA,NA,NA,""
"image-keyboard-response",226,226600,"0.0-3.71-2.71","vz8ybgzn49g3kyv",174,"55.csv","","null","resources/images/fishbone.png","null","",NA,NA,NA,NA,""
"image-keyboard-response",227,226664,"0.0-3.72-0.72","vz8ybgzn49g3kyv",174,"55.csv","","62","resources/trios/L1T2A1.jpg","37","restless",0.6,0.5,0.5,0.357214234758259,"true"
"image-keyboard-response",228,227067,"0.0-3.72-1.72","vz8ybgzn49g3kyv",174,"55.csv","","null","resources/maskTrios/L1BB.jpg","null","",NA,NA,NA,NA,""
"image-keyboard-response",229,228270,"0.0-3.72-2.72","vz8ybgzn49g3kyv",174,"55.csv","","null","resources/images/coin2.png","null","",NA,NA,NA,NA,""
"image-keyboard-response",230,228774,"0.0-3.73-0.73","vz8ybgzn49g3kyv",174,"55.csv","","503","resources/trios/L1T2A1.jpg","38","restless",0.7,0.5,0.5,0.95412568995985,"false"
"image-keyboard-response",231,229178,"0.0-3.73-1.73","vz8ybgzn49g3kyv",174,"55.csv","","null","resources/maskTrios/BT2B.jpg","null","",NA,NA,NA,NA,""
"image-keyboard-response",232,230381,"0.0-3.73-2.73","vz8ybgzn49g3kyv",174,"55.csv","","null","resources/images/fishbone.png","null","",NA,NA,NA,NA,""
"image-keyboard-response",233,230410,"0.0-3.74-0.74","vz8ybgzn49g3kyv",174,"55.csv","","26","resources/trios/L1T2A1.jpg","39","restless",0.7,0.5,0.5,0.3447774879884,"true"
"image-keyboard-response",234,230812,"0.0-3.74-1.74","vz8ybgzn49g3kyv",174,"55.csv","","null","resources/maskTrios/BBA1.jpg","null","",NA,NA,NA,NA,""
"image-keyboard-response",235,232014,"0.0-3.74-2.74","vz8ybgzn49g3kyv",174,"55.csv","","null","resources/images/coin2.png","null","",NA,NA,NA,NA,""
"image-keyboard-response",236,232286,"0.0-3.75-0.75","vz8ybgzn49g3kyv",174,"55.csv","","270","resources/trios/L1T2A1.jpg","37","restless",0.7,0.5,0.4,0.23426311836243,"true"
"image-keyboard-response",237,232689,"0.0-3.75-1.75","vz8ybgzn49g3kyv",174,"55.csv","","null","resources/maskTrios/L1BB.jpg","null","",NA,NA,NA,NA,""
"image-keyboard-response",238,233892,"0.0-3.75-2.75","vz8ybgzn49g3kyv",174,"55.csv","","null","resources/images/coin2.png","null","",NA,NA,NA,NA,""
"image-keyboard-response",239,235060,"0.0-3.76-0.76","vz8ybgzn49g3kyv",174,"55.csv","","1166","resources/trios/L2T4A2.jpg","37","restless",0.7,0.5,0.4,0.344234812547786,"true"
"image-keyboard-response",240,235464,"0.0-3.76-1.76","vz8ybgzn49g3kyv",174,"55.csv","","null","resources/maskTrios/L2BB.jpg","null","",NA,NA,NA,NA,""
"image-keyboard-response",241,236666,"0.0-3.76-2.76","vz8ybgzn49g3kyv",174,"55.csv","","null","resources/images/coin2.png","null","",NA,NA,NA,NA,""
"image-keyboard-response",242,237113,"0.0-3.77-0.77","vz8ybgzn49g3kyv",174,"55.csv","","444.0000000000291","resources/trios/L2T2A2.jpg","39","restless",0.7,0.4,0.3,0.967782616799068,"false"
"image-keyboard-response",243,237516,"0.0-3.77-1.77","vz8ybgzn49g3kyv",174,"55.csv","","null","resources/maskTrios/BBA2.jpg","null","",NA,NA,NA,NA,""
"image-keyboard-response",244,238718,"0.0-3.77-2.77","vz8ybgzn49g3kyv",174,"55.csv","","null","resources/images/fishbone.png","null","",NA,NA,NA,NA,""
"image-keyboard-response",245,238891,"0.0-3.78-0.78","vz8ybgzn49g3kyv",174,"55.csv","","171","resources/trios/L1T4A2.jpg","38","restless",0.7,0.4,0.3,0.440084011712327,"false"
"image-keyboard-response",246,239294,"0.0-3.78-1.78","vz8ybgzn49g3kyv",174,"55.csv","","null","resources/maskTrios/BT4B.jpg","null","",NA,NA,NA,NA,""
"image-keyboard-response",247,240496,"0.0-3.78-2.78","vz8ybgzn49g3kyv",174,"55.csv","","null","resources/images/fishbone.png","null","",NA,NA,NA,NA,""
"image-keyboard-response",248,240703,"0.0-3.79-0.79","vz8ybgzn49g3kyv",174,"55.csv","","203.9999999999709","resources/trios/L2T2A2.jpg","37","restless",0.7,0.4,0.3,0.954579847878908,"false"
"image-keyboard-response",249,241107,"0.0-3.79-1.79","vz8ybgzn49g3kyv",174,"55.csv","","null","resources/maskTrios/L2BB.jpg","null","",NA,NA,NA,NA,""
"image-keyboard-response",250,242310,"0.0-3.79-2.79","vz8ybgzn49g3kyv",174,"55.csv","","null","resources/images/fishbone.png","null","",NA,NA,NA,NA,""
"image-keyboard-response",251,242325,"0.0-3.80-0.80","vz8ybgzn49g3kyv",174,"55.csv","","13.000000000029104","resources/trios/L1T4A2.jpg","39","restless",0.7,0.4,0.3,0.930309559468191,"false"
"image-keyboard-response",252,242728,"0.0-3.80-1.80","vz8ybgzn49g3kyv",174,"55.csv","","null","resources/maskTrios/BBA2.jpg","null","",NA,NA,NA,NA,""
"image-keyboard-response",253,243930,"0.0-3.80-2.80","vz8ybgzn49g3kyv",174,"55.csv","","null","resources/images/fishbone.png","null","",NA,NA,NA,NA,""
"image-keyboard-response",254,243990,"0.0-3.81-0.81","vz8ybgzn49g3kyv",174,"55.csv","","58","resources/trios/L1T4A2.jpg","38","restless",0.7,0.4,0.3,0.0676216400656229,"true"
"image-keyboard-response",255,244392,"0.0-3.81-1.81","vz8ybgzn49g3kyv",174,"55.csv","","null","resources/maskTrios/BT4B.jpg","null","",NA,NA,NA,NA,""
"image-keyboard-response",256,245595,"0.0-3.81-2.81","vz8ybgzn49g3kyv",174,"55.csv","","null","resources/images/coin2.png","null","",NA,NA,NA,NA,""
"image-keyboard-response",257,245864,"0.0-3.82-0.82","vz8ybgzn49g3kyv",174,"55.csv","","267","resources/trios/L2T4A1.jpg","38","restless",0.7,0.3,0.3,0.92361227524019,"false"
"image-keyboard-response",258,246267,"0.0-3.82-1.82","vz8ybgzn49g3kyv",174,"55.csv","","null","resources/maskTrios/BT4B.jpg","null","",NA,NA,NA,NA,""
"image-keyboard-response",259,247470,"0.0-3.82-2.82","vz8ybgzn49g3kyv",174,"55.csv","","null","resources/images/fishbone.png","null","",NA,NA,NA,NA,""
"image-keyboard-response",260,247843,"0.0-3.83-0.83","vz8ybgzn49g3kyv",174,"55.csv","","371","resources/trios/L2T2A2.jpg","39","restless",0.7,0.4,0.3,0.419244547496994,"false"
"image-keyboard-response",261,248245,"0.0-3.83-1.83","vz8ybgzn49g3kyv",174,"55.csv","","null","resources/maskTrios/BBA2.jpg","null","",NA,NA,NA,NA,""
"image-keyboard-response",262,249448,"0.0-3.83-2.83","vz8ybgzn49g3kyv",174,"55.csv","","null","resources/images/fishbone.png","null","",NA,NA,NA,NA,""
"image-keyboard-response",263,249476,"0.0-3.84-0.84","vz8ybgzn49g3kyv",174,"55.csv","","26","resources/trios/L1T4A1.jpg","37","restless",0.7,0.4,0.4,0.724957232356202,"false"
"image-keyboard-response",264,249878,"0.0-3.84-1.84","vz8ybgzn49g3kyv",174,"55.csv","","null","resources/maskTrios/L1BB.jpg","null","",NA,NA,NA,NA,""
"image-keyboard-response",265,251080,"0.0-3.84-2.84","vz8ybgzn49g3kyv",174,"55.csv","","null","resources/images/fishbone.png","null","",NA,NA,NA,NA,""
"image-keyboard-response",266,251277,"0.0-3.85-0.85","vz8ybgzn49g3kyv",174,"55.csv","","195.9999999999709","resources/trios/L2T4A2.jpg","38","restless",0.7,0.5,0.4,0.136364484127669,"true"
"image-keyboard-response",267,251680,"0.0-3.85-1.85","vz8ybgzn49g3kyv",174,"55.csv","","null","resources/maskTrios/BT4B.jpg","null","",NA,NA,NA,NA,""
"image-keyboard-response",268,252883,"0.0-3.85-2.85","vz8ybgzn49g3kyv",174,"55.csv","","null","resources/images/coin2.png","null","",NA,NA,NA,NA,""
"image-keyboard-response",269,253136,"0.0-3.86-0.86","vz8ybgzn49g3kyv",174,"55.csv","","251","resources/trios/L2T2A1.jpg","38","restless",0.8,0.5,0.4,0.913387515853185,"false"
"image-keyboard-response",270,253538,"0.0-3.86-1.86","vz8ybgzn49g3kyv",174,"55.csv","","null","resources/maskTrios/BT2B.jpg","null","",NA,NA,NA,NA,""
"image-keyboard-response",271,254741,"0.0-3.86-2.86","vz8ybgzn49g3kyv",174,"55.csv","","null","resources/images/fishbone.png","null","",NA,NA,NA,NA,""
"image-keyboard-response",272,255239,"0.0-3.87-0.87","vz8ybgzn49g3kyv",174,"55.csv","","493.9999999999709","resources/trios/L1T2A2.jpg","39","restless",0.8,0.5,0.4,0.38535406224752,"true"
"image-keyboard-response",273,255642,"0.0-3.87-1.87","vz8ybgzn49g3kyv",174,"55.csv","","null","resources/maskTrios/BBA2.jpg","null","",NA,NA,NA,NA,""
"image-keyboard-response",274,256845,"0.0-3.87-2.87","vz8ybgzn49g3kyv",174,"55.csv","","null","resources/images/coin2.png","null","",NA,NA,NA,NA,""
"image-keyboard-response",275,257777,"0.0-3.88-0.88","vz8ybgzn49g3kyv",174,"55.csv","","931","resources/trios/L1T4A2.jpg","38","restless",0.8,0.5,0.4,0.717653302782436,"false"
"image-keyboard-response",276,258180,"0.0-3.88-1.88","vz8ybgzn49g3kyv",174,"55.csv","","null","resources/maskTrios/BT4B.jpg","null","",NA,NA,NA,NA,""
"image-keyboard-response",277,259383,"0.0-3.88-2.88","vz8ybgzn49g3kyv",174,"55.csv","","null","resources/images/fishbone.png","null","",NA,NA,NA,NA,""
"image-keyboard-response",278,259542,"0.0-3.89-0.89","vz8ybgzn49g3kyv",174,"55.csv","","158","resources/trios/L2T4A1.jpg","37","restless",0.8,0.5,0.4,0.487639794651617,"true"
"image-keyboard-response",279,259946,"0.0-3.89-1.89","vz8ybgzn49g3kyv",174,"55.csv","","null","resources/maskTrios/L2BB.jpg","null","",NA,NA,NA,NA,""
"image-keyboard-response",280,261149,"0.0-3.89-2.89","vz8ybgzn49g3kyv",174,"55.csv","","null","resources/images/coin2.png","null","",NA,NA,NA,NA,""
"image-keyboard-response",281,261620,"0.0-3.90-0.90","vz8ybgzn49g3kyv",174,"55.csv","","467","resources/trios/L2T2A2.jpg","37","restless",0.8,0.5,0.4,0.202461816011976,"true"
"image-keyboard-response",282,262023,"0.0-3.90-1.90","vz8ybgzn49g3kyv",174,"55.csv","","null","resources/maskTrios/L2BB.jpg","null","",NA,NA,NA,NA,""
"image-keyboard-response",283,263226,"0.0-3.90-2.90","vz8ybgzn49g3kyv",174,"55.csv","","null","resources/images/coin2.png","null","",NA,NA,NA,NA,""
"image-keyboard-response",284,263536,"0.0-3.91-0.91","vz8ybgzn49g3kyv",174,"55.csv","","308","resources/trios/L2T2A1.jpg","37","restless",0.8,0.5,0.4,0.132683553705627,"true"
"image-keyboard-response",285,263939,"0.0-3.91-1.91","vz8ybgzn49g3kyv",174,"55.csv","","null","resources/maskTrios/L2BB.jpg","null","",NA,NA,NA,NA,""
"image-keyboard-response",286,265143,"0.0-3.91-2.91","vz8ybgzn49g3kyv",174,"55.csv","","null","resources/images/coin2.png","null","",NA,NA,NA,NA,""
"image-keyboard-response",287,265783,"0.0-3.92-0.92","vz8ybgzn49g3kyv",174,"55.csv","","638","resources/trios/L1T2A1.jpg","39","restless",0.7,0.5,0.4,0.391235666436612,"true"
"image-keyboard-response",288,266186,"0.0-3.92-1.92","vz8ybgzn49g3kyv",174,"55.csv","","null","resources/maskTrios/BBA1.jpg","null","",NA,NA,NA,NA,""
"image-keyboard-response",289,267389,"0.0-3.92-2.92","vz8ybgzn49g3kyv",174,"55.csv","","null","resources/images/coin2.png","null","",NA,NA,NA,NA,""
"image-keyboard-response",290,268181,"0.0-3.93-0.93","vz8ybgzn49g3kyv",174,"55.csv","","787","resources/trios/L2T4A1.jpg","37","restless",0.7,0.5,0.4,0.683552684702671,"true"
"image-keyboard-response",291,268584,"0.0-3.93-1.93","vz8ybgzn49g3kyv",174,"55.csv","","null","resources/maskTrios/L2BB.jpg","null","",NA,NA,NA,NA,""
"image-keyboard-response",292,269787,"0.0-3.93-2.93","vz8ybgzn49g3kyv",174,"55.csv","","null","resources/images/coin2.png","null","",NA,NA,NA,NA,""
"image-keyboard-response",293,271211,"0.0-3.94-0.94","vz8ybgzn49g3kyv",174,"55.csv","","1421","resources/trios/L1T2A2.jpg","39","restless",0.7,0.5,0.4,0.152934784152182,"true"
"image-keyboard-response",294,271615,"0.0-3.94-1.94","vz8ybgzn49g3kyv",174,"55.csv","","null","resources/maskTrios/BBA2.jpg","null","",NA,NA,NA,NA,""
"image-keyboard-response",295,272818,"0.0-3.94-2.94","vz8ybgzn49g3kyv",174,"55.csv","","null","resources/images/coin2.png","null","",NA,NA,NA,NA,""
"image-keyboard-response",296,273532,"0.0-3.95-0.95","vz8ybgzn49g3kyv",174,"55.csv","","712","resources/trios/L1T2A1.jpg","37","restless",0.7,0.4,0.4,0.128730716434242,"true"
"image-keyboard-response",297,273936,"0.0-3.95-1.95","vz8ybgzn49g3kyv",174,"55.csv","","null","resources/maskTrios/L1BB.jpg","null","",NA,NA,NA,NA,""
"image-keyboard-response",298,275138,"0.0-3.95-2.95","vz8ybgzn49g3kyv",174,"55.csv","","null","resources/images/coin2.png","null","",NA,NA,NA,NA,""
"image-keyboard-response",299,275616,"0.0-3.96-0.96","vz8ybgzn49g3kyv",174,"55.csv","","477","resources/trios/L2T4A2.jpg","39","restless",0.7,0.4,0.5,0.089312164402656,"true"
"image-keyboard-response",300,276019,"0.0-3.96-1.96","vz8ybgzn49g3kyv",174,"55.csv","","null","resources/maskTrios/BBA2.jpg","null","",NA,NA,NA,NA,""
"image-keyboard-response",301,277222,"0.0-3.96-2.96","vz8ybgzn49g3kyv",174,"55.csv","","null","resources/images/coin2.png","null","",NA,NA,NA,NA,""
"image-keyboard-response",302,277544,"0.0-3.97-0.97","vz8ybgzn49g3kyv",174,"55.csv","","319","resources/trios/L1T2A1.jpg","37","restless",0.7,0.4,0.5,0.359340039489761,"true"
"image-keyboard-response",303,277947,"0.0-3.97-1.97","vz8ybgzn49g3kyv",174,"55.csv","","null","resources/maskTrios/L1BB.jpg","null","",NA,NA,NA,NA,""
"image-keyboard-response",304,279150,"0.0-3.97-2.97","vz8ybgzn49g3kyv",174,"55.csv","","null","resources/images/coin2.png","null","",NA,NA,NA,NA,""
"image-keyboard-response",305,279452,"0.0-3.98-0.98","vz8ybgzn49g3kyv",174,"55.csv","","300","resources/trios/L2T4A2.jpg","39","restless",0.7,0.4,0.6,0.153125590319292,"true"
"image-keyboard-response",306,279854,"0.0-3.98-1.98","vz8ybgzn49g3kyv",174,"55.csv","","null","resources/maskTrios/BBA2.jpg","null","",NA,NA,NA,NA,""
"image-keyboard-response",307,281057,"0.0-3.98-2.98","vz8ybgzn49g3kyv",174,"55.csv","","null","resources/images/coin2.png","null","",NA,NA,NA,NA,""
"image-keyboard-response",308,281346,"0.0-3.99-0.99","vz8ybgzn49g3kyv",174,"55.csv","","286","resources/trios/L2T2A2.jpg","37","restless",0.8,0.4,0.6,0.581929711888972,"true"
"image-keyboard-response",309,281749,"0.0-3.99-1.99","vz8ybgzn49g3kyv",174,"55.csv","","null","resources/maskTrios/L2BB.jpg","null","",NA,NA,NA,NA,""
"image-keyboard-response",310,282952,"0.0-3.99-2.99","vz8ybgzn49g3kyv",174,"55.csv","","null","resources/images/coin2.png","null","",NA,NA,NA,NA,""
"image-keyboard-response",311,283229,"0.0-3.100-0.100","vz8ybgzn49g3kyv",174,"55.csv","","275","resources/trios/L2T4A1.jpg","39","restless",0.8,0.4,0.6,0.633978330948975,"false"
"image-keyboard-response",312,283634,"0.0-3.100-1.100","vz8ybgzn49g3kyv",174,"55.csv","","null","resources/maskTrios/BBA1.jpg","null","",NA,NA,NA,NA,""
"image-keyboard-response",313,284836,"0.0-3.100-2.100","vz8ybgzn49g3kyv",174,"55.csv","","null","resources/images/fishbone.png","null","",NA,NA,NA,NA,""
"image-keyboard-response",314,285081,"0.0-3.101-0.101","vz8ybgzn49g3kyv",174,"55.csv","","242","resources/trios/L2T4A1.jpg","38","restless",0.8,0.4,0.6,0.377646441382157,"true"
"image-keyboard-response",315,285484,"0.0-3.101-1.101","vz8ybgzn49g3kyv",174,"55.csv","","null","resources/maskTrios/BT4B.jpg","null","",NA,NA,NA,NA,""
"image-keyboard-response",316,286687,"0.0-3.101-2.101","vz8ybgzn49g3kyv",174,"55.csv","","null","resources/images/coin2.png","null","",NA,NA,NA,NA,""
"image-keyboard-response",317,287092,"0.0-3.102-0.102","vz8ybgzn49g3kyv",174,"55.csv","","400","resources/trios/L2T4A1.jpg","37","restless",0.8,0.4,0.6,0.658692136441909,"true"
"image-keyboard-response",318,287495,"0.0-3.102-1.102","vz8ybgzn49g3kyv",174,"55.csv","","null","resources/maskTrios/L2BB.jpg","null","",NA,NA,NA,NA,""
"image-keyboard-response",319,288698,"0.0-3.102-2.102","vz8ybgzn49g3kyv",174,"55.csv","","null","resources/images/coin2.png","null","",NA,NA,NA,NA,""
"image-keyboard-response",320,288982,"0.0-3.103-0.103","vz8ybgzn49g3kyv",174,"55.csv","","282","resources/trios/L1T2A2.jpg","38","restless",0.8,0.4,0.6,0.40970862179026,"false"
"image-keyboard-response",321,289385,"0.0-3.103-1.103","vz8ybgzn49g3kyv",174,"55.csv","","null","resources/maskTrios/BT2B.jpg","null","",NA,NA,NA,NA,""
"image-keyboard-response",322,290587,"0.0-3.103-2.103","vz8ybgzn49g3kyv",174,"55.csv","","null","resources/images/fishbone.png","null","",NA,NA,NA,NA,""
"image-keyboard-response",323,291019,"0.0-3.104-0.104","vz8ybgzn49g3kyv",174,"55.csv","","429","resources/trios/L2T2A1.jpg","38","restless",0.8,0.4,0.6,0.199506751732231,"true"
"image-keyboard-response",324,291422,"0.0-3.104-1.104","vz8ybgzn49g3kyv",174,"55.csv","","null","resources/maskTrios/BT2B.jpg","null","",NA,NA,NA,NA,""
"image-keyboard-response",325,292625,"0.0-3.104-2.104","vz8ybgzn49g3kyv",174,"55.csv","","null","resources/images/coin2.png","null","",NA,NA,NA,NA,""
"image-keyboard-response",326,293591,"0.0-3.105-0.105","vz8ybgzn49g3kyv",174,"55.csv","","963.0000000000582","resources/trios/L1T4A1.jpg","39","restless",0.8,0.4,0.6,0.149035801268118,"true"
"image-keyboard-response",327,293994,"0.0-3.105-1.105","vz8ybgzn49g3kyv",174,"55.csv","","null","resources/maskTrios/BBA1.jpg","null","",NA,NA,NA,NA,""
"image-keyboard-response",328,295197,"0.0-3.105-2.105","vz8ybgzn49g3kyv",174,"55.csv","","null","resources/images/coin2.png","null","",NA,NA,NA,NA,""
"image-keyboard-response",329,295503,"0.0-3.106-0.106","vz8ybgzn49g3kyv",174,"55.csv","","303","resources/trios/L2T4A2.jpg","37","restless",0.8,0.4,0.6,0.60244038581669,"true"
"image-keyboard-response",330,295906,"0.0-3.106-1.106","vz8ybgzn49g3kyv",174,"55.csv","","null","resources/maskTrios/L2BB.jpg","null","",NA,NA,NA,NA,""
"image-keyboard-response",331,297109,"0.0-3.106-2.106","vz8ybgzn49g3kyv",174,"55.csv","","null","resources/images/coin2.png","null","",NA,NA,NA,NA,""
"image-keyboard-response",332,297382,"0.0-3.107-0.107","vz8ybgzn49g3kyv",174,"55.csv","","271","resources/trios/L1T2A2.jpg","39","restless",0.8,0.4,0.6,0.0936048697295039,"true"
"image-keyboard-response",333,297785,"0.0-3.107-1.107","vz8ybgzn49g3kyv",174,"55.csv","","null","resources/maskTrios/BBA2.jpg","null","",NA,NA,NA,NA,""
"image-keyboard-response",334,298988,"0.0-3.107-2.107","vz8ybgzn49g3kyv",174,"55.csv","","null","resources/images/coin2.png","null","",NA,NA,NA,NA,""
"image-keyboard-response",335,299253,"0.0-3.108-0.108","vz8ybgzn49g3kyv",174,"55.csv","","261","resources/trios/L2T4A1.jpg","37","restless",0.8,0.4,0.6,0.36173454831714,"true"
"image-keyboard-response",336,299656,"0.0-3.108-1.108","vz8ybgzn49g3kyv",174,"55.csv","","null","resources/maskTrios/L2BB.jpg","null","",NA,NA,NA,NA,""
"image-keyboard-response",337,300859,"0.0-3.108-2.108","vz8ybgzn49g3kyv",174,"55.csv","","null","resources/images/coin2.png","null","",NA,NA,NA,NA,""
"image-keyboard-response",338,301140,"0.0-3.109-0.109","vz8ybgzn49g3kyv",174,"55.csv","","279","resources/trios/L1T2A2.jpg","39","restless",0.8,0.4,0.6,0.944498167388603,"false"
"image-keyboard-response",339,301544,"0.0-3.109-1.109","vz8ybgzn49g3kyv",174,"55.csv","","null","resources/maskTrios/BBA2.jpg","null","",NA,NA,NA,NA,""
"image-keyboard-response",340,302747,"0.0-3.109-2.109","vz8ybgzn49g3kyv",174,"55.csv","","null","resources/images/fishbone.png","null","",NA,NA,NA,NA,""
"image-keyboard-response",341,303412,"0.0-3.110-0.110","vz8ybgzn49g3kyv",174,"55.csv","","663.0000000000582","resources/trios/L2T2A1.jpg","38","restless",0.7,0.4,0.6,0.898655387742649,"false"
"image-keyboard-response",342,303815,"0.0-3.110-1.110","vz8ybgzn49g3kyv",174,"55.csv","","null","resources/maskTrios/BT2B.jpg","null","",NA,NA,NA,NA,""
"image-keyboard-response",343,305018,"0.0-3.110-2.110","vz8ybgzn49g3kyv",174,"55.csv","","null","resources/images/fishbone.png","null","",NA,NA,NA,NA,""
"image-keyboard-response",344,305274,"0.0-3.111-0.111","vz8ybgzn49g3kyv",174,"55.csv","","254","resources/trios/L1T2A2.jpg","37","restless",0.7,0.4,0.6,0.979682522441735,"false"
"image-keyboard-response",345,305677,"0.0-3.111-1.111","vz8ybgzn49g3kyv",174,"55.csv","","null","resources/maskTrios/L1BB.jpg","null","",NA,NA,NA,NA,""
"image-keyboard-response",346,306880,"0.0-3.111-2.111","vz8ybgzn49g3kyv",174,"55.csv","","null","resources/images/fishbone.png","null","",NA,NA,NA,NA,""
"image-keyboard-response",347,306979,"0.0-3.112-0.112","vz8ybgzn49g3kyv",174,"55.csv","","97","resources/trios/L2T4A1.jpg","38","restless",0.7,0.4,0.5,0.3138631723847,"true"
"image-keyboard-response",348,307381,"0.0-3.112-1.112","vz8ybgzn49g3kyv",174,"55.csv","","null","resources/maskTrios/BT4B.jpg","null","",NA,NA,NA,NA,""
"image-keyboard-response",349,308584,"0.0-3.112-2.112","vz8ybgzn49g3kyv",174,"55.csv","","null","resources/images/coin2.png","null","",NA,NA,NA,NA,""
"image-keyboard-response",350,309157,"0.0-3.113-0.113","vz8ybgzn49g3kyv",174,"55.csv","","571","resources/trios/L2T4A1.jpg","38","restless",0.7,0.4,0.5,0.753047482865591,"false"
"image-keyboard-response",351,309560,"0.0-3.113-1.113","vz8ybgzn49g3kyv",174,"55.csv","","null","resources/maskTrios/BT4B.jpg","null","",NA,NA,NA,NA,""
"image-keyboard-response",352,310763,"0.0-3.113-2.113","vz8ybgzn49g3kyv",174,"55.csv","","null","resources/images/fishbone.png","null","",NA,NA,NA,NA,""
"image-keyboard-response",353,310962,"0.0-3.114-0.114","vz8ybgzn49g3kyv",174,"55.csv","","197","resources/trios/L1T2A1.jpg","39","restless",0.7,0.4,0.5,0.636529137786339,"false"
"image-keyboard-response",354,311365,"0.0-3.114-1.114","vz8ybgzn49g3kyv",174,"55.csv","","null","resources/maskTrios/BBA1.jpg","null","",NA,NA,NA,NA,""
"image-keyboard-response",355,312568,"0.0-3.114-2.114","vz8ybgzn49g3kyv",174,"55.csv","","null","resources/images/fishbone.png","null","",NA,NA,NA,NA,""
"image-keyboard-response",356,312773,"0.0-3.115-0.115","vz8ybgzn49g3kyv",174,"55.csv","","203","resources/trios/L1T4A1.jpg","37","restless",0.7,0.4,0.6,0.253654969795233,"true"
"image-keyboard-response",357,313176,"0.0-3.115-1.115","vz8ybgzn49g3kyv",174,"55.csv","","null","resources/maskTrios/L1BB.jpg","null","",NA,NA,NA,NA,""
"image-keyboard-response",358,314379,"0.0-3.115-2.115","vz8ybgzn49g3kyv",174,"55.csv","","null","resources/images/coin2.png","null","",NA,NA,NA,NA,""
"image-keyboard-response",359,314987,"0.0-3.116-0.116","vz8ybgzn49g3kyv",174,"55.csv","","606","resources/trios/L1T2A2.jpg","38","restless",0.7,0.4,0.6,0.935642883984238,"false"
"image-keyboard-response",360,315392,"0.0-3.116-1.116","vz8ybgzn49g3kyv",174,"55.csv","","null","resources/maskTrios/BT2B.jpg","null","",NA,NA,NA,NA,""
"image-keyboard-response",361,316594,"0.0-3.116-2.116","vz8ybgzn49g3kyv",174,"55.csv","","null","resources/images/fishbone.png","null","",NA,NA,NA,NA,""
"image-keyboard-response",362,316790,"0.0-3.117-0.117","vz8ybgzn49g3kyv",174,"55.csv","","194","resources/trios/L1T2A2.jpg","37","restless",0.7,0.4,0.6,0.491931330302863,"true"
"image-keyboard-response",363,317193,"0.0-3.117-1.117","vz8ybgzn49g3kyv",174,"55.csv","","null","resources/maskTrios/L1BB.jpg","null","",NA,NA,NA,NA,""
"image-keyboard-response",364,318396,"0.0-3.117-2.117","vz8ybgzn49g3kyv",174,"55.csv","","null","resources/images/coin2.png","null","",NA,NA,NA,NA,""
"image-keyboard-response",365,318819,"0.0-3.118-0.118","vz8ybgzn49g3kyv",174,"55.csv","","421","resources/trios/L1T4A2.jpg","39","restless",0.7,0.4,0.6,0.256113527533477,"true"
"image-keyboard-response",366,319222,"0.0-3.118-1.118","vz8ybgzn49g3kyv",174,"55.csv","","null","resources/maskTrios/BBA2.jpg","null","",NA,NA,NA,NA,""
"image-keyboard-response",367,320425,"0.0-3.118-2.118","vz8ybgzn49g3kyv",174,"55.csv","","null","resources/images/coin2.png","null","",NA,NA,NA,NA,""
"image-keyboard-response",368,320682,"0.0-3.119-0.119","vz8ybgzn49g3kyv",174,"55.csv","","252","resources/trios/L2T2A1.jpg","37","restless",0.7,0.4,0.6,0.474438441159426,"true"
"image-keyboard-response",369,321086,"0.0-3.119-1.119","vz8ybgzn49g3kyv",174,"55.csv","","null","resources/maskTrios/L2BB.jpg","null","",NA,NA,NA,NA,""
"image-keyboard-response",370,322289,"0.0-3.119-2.119","vz8ybgzn49g3kyv",174,"55.csv","","null","resources/images/coin2.png","null","",NA,NA,NA,NA,""
"image-keyboard-response",371,322323,"0.0-3.120-0.120","vz8ybgzn49g3kyv",174,"55.csv","","32.00000000005821","resources/trios/L1T4A2.jpg","39","restless",0.7,0.4,0.7,0.511679307733624,"true"
"image-keyboard-response",372,322726,"0.0-3.120-1.120","vz8ybgzn49g3kyv",174,"55.csv","","null","resources/maskTrios/BBA2.jpg","null","",NA,NA,NA,NA,""
"image-keyboard-response",373,323929,"0.0-3.120-2.120","vz8ybgzn49g3kyv",174,"55.csv","","null","resources/images/coin2.png","null","",NA,NA,NA,NA,""
"image-keyboard-response",374,324210,"0.0-3.121-0.121","vz8ybgzn49g3kyv",174,"55.csv","","279.0000000000582","resources/trios/L2T2A1.jpg","37","restless",0.6,0.4,0.7,0.494013116797335,"true"
"image-keyboard-response",375,324613,"0.0-3.121-1.121","vz8ybgzn49g3kyv",174,"55.csv","","null","resources/maskTrios/L2BB.jpg","null","",NA,NA,NA,NA,""
"image-keyboard-response",376,325816,"0.0-3.121-2.121","vz8ybgzn49g3kyv",174,"55.csv","","null","resources/images/coin2.png","null","",NA,NA,NA,NA,""
"image-keyboard-response",377,326097,"0.0-3.122-0.122","vz8ybgzn49g3kyv",174,"55.csv","","278","resources/trios/L2T2A2.jpg","39","restless",0.6,0.4,0.7,0.545317660102703,"true"
"image-keyboard-response",378,326500,"0.0-3.122-1.122","vz8ybgzn49g3kyv",174,"55.csv","","null","resources/maskTrios/BBA2.jpg","null","",NA,NA,NA,NA,""
"image-keyboard-response",379,327703,"0.0-3.122-2.122","vz8ybgzn49g3kyv",174,"55.csv","","null","resources/images/coin2.png","null","",NA,NA,NA,NA,""
"image-keyboard-response",380,328070,"0.0-3.123-0.123","vz8ybgzn49g3kyv",174,"55.csv","","366","resources/trios/L1T4A2.jpg","37","restless",0.6,0.4,0.7,0.613468733900952,"false"
"image-keyboard-response",381,328473,"0.0-3.123-1.123","vz8ybgzn49g3kyv",174,"55.csv","","null","resources/maskTrios/L1BB.jpg","null","",NA,NA,NA,NA,""
"image-keyboard-response",382,329676,"0.0-3.123-2.123","vz8ybgzn49g3kyv",174,"55.csv","","null","resources/images/fishbone.png","null","",NA,NA,NA,NA,""
"image-keyboard-response",383,329977,"0.0-3.124-0.124","vz8ybgzn49g3kyv",174,"55.csv","","298.0000000000582","resources/trios/L2T2A2.jpg","39","restless",0.6,0.4,0.7,0.67744098860484,"true"
"image-keyboard-response",384,330380,"0.0-3.124-1.124","vz8ybgzn49g3kyv",174,"55.csv","","null","resources/maskTrios/BBA2.jpg","null","",NA,NA,NA,NA,""
"image-keyboard-response",385,331583,"0.0-3.124-2.124","vz8ybgzn49g3kyv",174,"55.csv","","null","resources/images/coin2.png","null","",NA,NA,NA,NA,""
"image-keyboard-response",386,331825,"0.0-3.125-0.125","vz8ybgzn49g3kyv",174,"55.csv","","239.9999999999418","resources/trios/L2T2A1.jpg","38","restless",0.6,0.4,0.7,0.0897788526422852,"true"
"image-keyboard-response",387,332228,"0.0-3.125-1.125","vz8ybgzn49g3kyv",174,"55.csv","","null","resources/maskTrios/BT2B.jpg","null","",NA,NA,NA,NA,""
"image-keyboard-response",388,333431,"0.0-3.125-2.125","vz8ybgzn49g3kyv",174,"55.csv","","null","resources/images/coin2.png","null","",NA,NA,NA,NA,""
"image-keyboard-response",389,333744,"0.0-3.126-0.126","vz8ybgzn49g3kyv",174,"55.csv","","311","resources/trios/L2T2A2.jpg","39","restless",0.6,0.4,0.7,0.000532875978579428,"true"
"image-keyboard-response",390,334147,"0.0-3.126-1.126","vz8ybgzn49g3kyv",174,"55.csv","","null","resources/maskTrios/BBA2.jpg","null","",NA,NA,NA,NA,""
"image-keyboard-response",391,335350,"0.0-3.126-2.126","vz8ybgzn49g3kyv",174,"55.csv","","null","resources/images/coin2.png","null","",NA,NA,NA,NA,""
"image-keyboard-response",392,335631,"0.0-3.127-0.127","vz8ybgzn49g3kyv",174,"55.csv","","278.9999999999418","resources/trios/L2T2A1.jpg","37","restless",0.6,0.4,0.7,0.19238052055851,"true"
"image-keyboard-response",393,336034,"0.0-3.127-1.127","vz8ybgzn49g3kyv",174,"55.csv","","null","resources/maskTrios/L2BB.jpg","null","",NA,NA,NA,NA,""
"image-keyboard-response",394,337237,"0.0-3.127-2.127","vz8ybgzn49g3kyv",174,"55.csv","","null","resources/images/coin2.png","null","",NA,NA,NA,NA,""
"image-keyboard-response",395,337521,"0.0-3.128-0.128","vz8ybgzn49g3kyv",174,"55.csv","","281.9999999999418","resources/trios/L1T4A2.jpg","39","restless",0.6,0.4,0.6,0.171553064633867,"true"
"image-keyboard-response",396,337924,"0.0-3.128-1.128","vz8ybgzn49g3kyv",174,"55.csv","","null","resources/maskTrios/BBA2.jpg","null","",NA,NA,NA,NA,""
"image-keyboard-response",397,339127,"0.0-3.128-2.128","vz8ybgzn49g3kyv",174,"55.csv","","null","resources/images/coin2.png","null","",NA,NA,NA,NA,""
"image-keyboard-response",398,339200,"0.0-3.129-0.129","vz8ybgzn49g3kyv",174,"55.csv","","71","resources/trios/L2T4A1.jpg","37","restless",0.6,0.4,0.6,0.0145428340679863,"true"
"image-keyboard-response",399,339603,"0.0-3.129-1.129","vz8ybgzn49g3kyv",174,"55.csv","","null","resources/maskTrios/L2BB.jpg","null","",NA,NA,NA,NA,""
"image-keyboard-response",400,340806,"0.0-3.129-2.129","vz8ybgzn49g3kyv",174,"55.csv","","null","resources/images/coin2.png","null","",NA,NA,NA,NA,""
"image-keyboard-response",401,340863,"0.0-3.130-0.130","vz8ybgzn49g3kyv",174,"55.csv","","56.00000000005821","resources/trios/L2T2A1.jpg","39","restless",0.6,0.5,0.6,0.849651877229591,"false"
"image-keyboard-response",402,341266,"0.0-3.130-1.130","vz8ybgzn49g3kyv",174,"55.csv","","null","resources/maskTrios/BBA1.jpg","null","",NA,NA,NA,NA,""
"image-keyboard-response",403,342468,"0.0-3.130-2.130","vz8ybgzn49g3kyv",174,"55.csv","","null","resources/images/fishbone.png","null","",NA,NA,NA,NA,""
"image-keyboard-response",404,342544,"0.0-3.131-0.131","vz8ybgzn49g3kyv",174,"55.csv","","75","resources/trios/L1T4A2.jpg","37","restless",0.6,0.5,0.6,0.242138410844919,"true"
"image-keyboard-response",405,342946,"0.0-3.131-1.131","vz8ybgzn49g3kyv",174,"55.csv","","null","resources/maskTrios/L1BB.jpg","null","",NA,NA,NA,NA,""
"image-keyboard-response",406,344149,"0.0-3.131-2.131","vz8ybgzn49g3kyv",174,"55.csv","","null","resources/images/coin2.png","null","",NA,NA,NA,NA,""
"image-keyboard-response",407,344421,"0.0-3.132-0.132","vz8ybgzn49g3kyv",174,"55.csv","","268","resources/trios/L1T2A1.jpg","38","restless",0.6,0.5,0.5,0.706671972750744,"false"
"image-keyboard-response",408,344824,"0.0-3.132-1.132","vz8ybgzn49g3kyv",174,"55.csv","","null","resources/maskTrios/BT2B.jpg","null","",NA,NA,NA,NA,""
"image-keyboard-response",409,346027,"0.0-3.132-2.132","vz8ybgzn49g3kyv",174,"55.csv","","null","resources/images/fishbone.png","null","",NA,NA,NA,NA,""
"image-keyboard-response",410,346505,"0.0-3.133-0.133","vz8ybgzn49g3kyv",174,"55.csv","","475","resources/trios/L1T4A1.jpg","39","restless",0.6,0.5,0.5,0.631385500497004,"false"
"image-keyboard-response",411,346908,"0.0-3.133-1.133","vz8ybgzn49g3kyv",174,"55.csv","","null","resources/maskTrios/BBA1.jpg","null","",NA,NA,NA,NA,""
"image-keyboard-response",412,348111,"0.0-3.133-2.133","vz8ybgzn49g3kyv",174,"55.csv","","null","resources/images/fishbone.png","null","",NA,NA,NA,NA,""
"image-keyboard-response",413,348458,"0.0-3.134-0.134","vz8ybgzn49g3kyv",174,"55.csv","","344.9999999999418","resources/trios/L1T2A2.jpg","39","restless",0.5,0.5,0.5,0.498079704975566,"true"
"image-keyboard-response",414,348862,"0.0-3.134-1.134","vz8ybgzn49g3kyv",174,"55.csv","","null","resources/maskTrios/BBA2.jpg","null","",NA,NA,NA,NA,""
"image-keyboard-response",415,350065,"0.0-3.134-2.134","vz8ybgzn49g3kyv",174,"55.csv","","null","resources/images/coin2.png","null","",NA,NA,NA,NA,""
"image-keyboard-response",416,350319,"0.0-3.135-0.135","vz8ybgzn49g3kyv",174,"55.csv","","252","resources/trios/L1T4A1.jpg","37","restless",0.5,0.5,0.5,0.616832303986775,"false"
"image-keyboard-response",417,350721,"0.0-3.135-1.135","vz8ybgzn49g3kyv",174,"55.csv","","null","resources/maskTrios/L1BB.jpg","null","",NA,NA,NA,NA,""
"image-keyboard-response",418,351923,"0.0-3.135-2.135","vz8ybgzn49g3kyv",174,"55.csv","","null","resources/images/fishbone.png","null","",NA,NA,NA,NA,""
"image-keyboard-response",419,351957,"0.0-3.136-0.136","vz8ybgzn49g3kyv",174,"55.csv","","31","resources/trios/L1T4A1.jpg","38","restless",0.6,0.5,0.5,0.449499956516666,"true"
"image-keyboard-response",420,352359,"0.0-3.136-1.136","vz8ybgzn49g3kyv",174,"55.csv","","null","resources/maskTrios/BT4B.jpg","null","",NA,NA,NA,NA,""
"image-keyboard-response",421,353564,"0.0-3.136-2.136","vz8ybgzn49g3kyv",174,"55.csv","","null","resources/images/coin2.png","null","",NA,NA,NA,NA,""
"image-keyboard-response",422,353694,"0.0-3.137-0.137","vz8ybgzn49g3kyv",174,"55.csv","","128","resources/trios/L1T4A2.jpg","39","restless",0.6,0.5,0.5,0.624780249773754,"false"
"image-keyboard-response",423,354096,"0.0-3.137-1.137","vz8ybgzn49g3kyv",174,"55.csv","","null","resources/maskTrios/BBA2.jpg","null","",NA,NA,NA,NA,""
"image-keyboard-response",424,355298,"0.0-3.137-2.137","vz8ybgzn49g3kyv",174,"55.csv","","null","resources/images/fishbone.png","null","",NA,NA,NA,NA,""
"image-keyboard-response",425,355325,"0.0-3.138-0.138","vz8ybgzn49g3kyv",174,"55.csv","","25","resources/trios/L1T2A2.jpg","38","restless",0.6,0.5,0.4,0.931104587490538,"false"
"image-keyboard-response",426,355727,"0.0-3.138-1.138","vz8ybgzn49g3kyv",174,"55.csv","","null","resources/maskTrios/BT2B.jpg","null","",NA,NA,NA,NA,""
"image-keyboard-response",427,356929,"0.0-3.138-2.138","vz8ybgzn49g3kyv",174,"55.csv","","null","resources/images/fishbone.png","null","",NA,NA,NA,NA,""
"image-keyboard-response",428,357166,"0.0-3.139-0.139","vz8ybgzn49g3kyv",174,"55.csv","","235","resources/trios/L1T2A2.jpg","37","restless",0.6,0.5,0.4,0.652868611007492,"false"
"image-keyboard-response",429,357569,"0.0-3.139-1.139","vz8ybgzn49g3kyv",174,"55.csv","","null","resources/maskTrios/L1BB.jpg","null","",NA,NA,NA,NA,""
"image-keyboard-response",430,358771,"0.0-3.139-2.139","vz8ybgzn49g3kyv",174,"55.csv","","null","resources/images/fishbone.png","null","",NA,NA,NA,NA,""
"image-keyboard-response",431,359088,"0.0-3.140-0.140","vz8ybgzn49g3kyv",174,"55.csv","","316","resources/trios/L1T4A1.jpg","38","restless",0.6,0.5,0.4,0.953743986742351,"false"
"image-keyboard-response",432,359491,"0.0-3.140-1.140","vz8ybgzn49g3kyv",174,"55.csv","","null","resources/maskTrios/BT4B.jpg","null","",NA,NA,NA,NA,""
"image-keyboard-response",433,360693,"0.0-3.140-2.140","vz8ybgzn49g3kyv",174,"55.csv","","null","resources/images/fishbone.png","null","",NA,NA,NA,NA,""
"image-keyboard-response",434,360734,"0.0-3.141-0.141","vz8ybgzn49g3kyv",174,"55.csv","","36","resources/trios/L1T2A2.jpg","39","restless",0.6,0.5,0.4,0.704369500030657,"false"
"image-keyboard-response",435,361137,"0.0-3.141-1.141","vz8ybgzn49g3kyv",174,"55.csv","","null","resources/maskTrios/BBA2.jpg","null","",NA,NA,NA,NA,""
"image-keyboard-response",436,362340,"0.0-3.141-2.141","vz8ybgzn49g3kyv",174,"55.csv","","null","resources/images/fishbone.png","null","",NA,NA,NA,NA,""
"image-keyboard-response",437,362603,"0.0-3.142-0.142","vz8ybgzn49g3kyv",174,"55.csv","","262","resources/trios/L1T4A1.jpg","37","restless",0.6,0.5,0.3,0.405611745417546,"true"
"image-keyboard-response",438,363006,"0.0-3.142-1.142","vz8ybgzn49g3kyv",174,"55.csv","","null","resources/maskTrios/L1BB.jpg","null","",NA,NA,NA,NA,""
"image-keyboard-response",439,364209,"0.0-3.142-2.142","vz8ybgzn49g3kyv",174,"55.csv","","null","resources/images/coin2.png","null","",NA,NA,NA,NA,""
"image-keyboard-response",440,364432,"0.0-3.143-0.143","vz8ybgzn49g3kyv",174,"55.csv","","220","resources/trios/L1T4A1.jpg","39","restless",0.6,0.5,0.3,0.253146283563153,"true"
"image-keyboard-response",441,364835,"0.0-3.143-1.143","vz8ybgzn49g3kyv",174,"55.csv","","null","resources/maskTrios/BBA1.jpg","null","",NA,NA,NA,NA,""
"image-keyboard-response",442,366038,"0.0-3.143-2.143","vz8ybgzn49g3kyv",174,"55.csv","","null","resources/images/coin2.png","null","",NA,NA,NA,NA,""
"image-keyboard-response",443,366408,"0.0-3.144-0.144","vz8ybgzn49g3kyv",174,"55.csv","","368","resources/trios/L1T4A2.jpg","37","restless",0.6,0.5,0.3,0.356743936005831,"true"
"image-keyboard-response",444,366811,"0.0-3.144-1.144","vz8ybgzn49g3kyv",174,"55.csv","","null","resources/maskTrios/L1BB.jpg","null","",NA,NA,NA,NA,""
"image-keyboard-response",445,368014,"0.0-3.144-2.144","vz8ybgzn49g3kyv",174,"55.csv","","null","resources/images/coin2.png","null","",NA,NA,NA,NA,""
"image-keyboard-response",446,368327,"0.0-3.145-0.145","vz8ybgzn49g3kyv",174,"55.csv","","311.0000000000582","resources/trios/L1T4A2.jpg","39","restless",0.6,0.5,0.3,0.290160731297267,"true"
"image-keyboard-response",447,368732,"0.0-3.145-1.145","vz8ybgzn49g3kyv",174,"55.csv","","null","resources/maskTrios/BBA2.jpg","null","",NA,NA,NA,NA,""
"image-keyboard-response",448,369935,"0.0-3.145-2.145","vz8ybgzn49g3kyv",174,"55.csv","","null","resources/images/coin2.png","null","",NA,NA,NA,NA,""
"image-keyboard-response",449,370402,"0.0-3.146-0.146","vz8ybgzn49g3kyv",174,"55.csv","","465","resources/trios/L2T2A1.jpg","37","restless",0.6,0.5,0.2,0.824474547578534,"false"
"image-keyboard-response",450,370805,"0.0-3.146-1.146","vz8ybgzn49g3kyv",174,"55.csv","","null","resources/maskTrios/L2BB.jpg","null","",NA,NA,NA,NA,""
"image-keyboard-response",451,372008,"0.0-3.146-2.146","vz8ybgzn49g3kyv",174,"55.csv","","null","resources/images/fishbone.png","null","",NA,NA,NA,NA,""
"image-keyboard-response",452,373406,"0.0-3.147-0.147","vz8ybgzn49g3kyv",174,"55.csv","","1397","resources/trios/L1T2A1.jpg","39","restless",0.6,0.5,0.2,0.81989706392894,"false"
"image-keyboard-response",453,373811,"0.0-3.147-1.147","vz8ybgzn49g3kyv",174,"55.csv","","null","resources/maskTrios/BBA1.jpg","null","",NA,NA,NA,NA,""
"image-keyboard-response",454,375014,"0.0-3.147-2.147","vz8ybgzn49g3kyv",174,"55.csv","","null","resources/images/fishbone.png","null","",NA,NA,NA,NA,""
"image-keyboard-response",455,375567,"0.0-3.148-0.148","vz8ybgzn49g3kyv",174,"55.csv","","550","resources/trios/L1T2A2.jpg","39","restless",0.6,0.5,0.1,0.353868960417735,"false"
"image-keyboard-response",456,375970,"0.0-3.148-1.148","vz8ybgzn49g3kyv",174,"55.csv","","null","resources/maskTrios/BBA2.jpg","null","",NA,NA,NA,NA,""
"image-keyboard-response",457,377172,"0.0-3.148-2.148","vz8ybgzn49g3kyv",174,"55.csv","","null","resources/images/fishbone.png","null","",NA,NA,NA,NA,""
"image-keyboard-response",458,377353,"0.0-3.149-0.149","vz8ybgzn49g3kyv",174,"55.csv","","179","resources/trios/L2T2A1.jpg","38","restless",0.6,0.5,0.1,0.376154885904662,"true"
"image-keyboard-response",459,377756,"0.0-3.149-1.149","vz8ybgzn49g3kyv",174,"55.csv","","null","resources/maskTrios/BT2B.jpg","null","",NA,NA,NA,NA,""
"image-keyboard-response",460,378959,"0.0-3.149-2.149","vz8ybgzn49g3kyv",174,"55.csv","","null","resources/images/coin2.png","null","",NA,NA,NA,NA,""
"image-keyboard-response",461,379335,"0.0-3.150-0.150","vz8ybgzn49g3kyv",174,"55.csv","","373.0000000000582","resources/trios/L2T4A1.jpg","37","restless",0.6,0.5,0.2,0.784996882784208,"false"
"image-keyboard-response",462,379738,"0.0-3.150-1.150","vz8ybgzn49g3kyv",174,"55.csv","","null","resources/maskTrios/L2BB.jpg","null","",NA,NA,NA,NA,""
"image-keyboard-response",463,380941,"0.0-3.150-2.150","vz8ybgzn49g3kyv",174,"55.csv","","null","resources/images/fishbone.png","null","",NA,NA,NA,NA,""
"image-keyboard-response",464,381265,"0.0-3.151-0.151","vz8ybgzn49g3kyv",174,"55.csv","","322","resources/trios/L2T4A1.jpg","38","restless",0.6,0.5,0.2,0.323893039967233,"true"
"image-keyboard-response",465,381668,"0.0-3.151-1.151","vz8ybgzn49g3kyv",174,"55.csv","","null","resources/maskTrios/BT4B.jpg","null","",NA,NA,NA,NA,""
"image-keyboard-response",466,382871,"0.0-3.151-2.151","vz8ybgzn49g3kyv",174,"55.csv","","null","resources/images/coin2.png","null","",NA,NA,NA,NA,""
"image-keyboard-response",467,383013,"0.0-3.152-0.152","vz8ybgzn49g3kyv",174,"55.csv","","140","resources/trios/L2T4A1.jpg","39","restless",0.6,0.5,0.2,0.903699385038406,"false"
"image-keyboard-response",468,383417,"0.0-3.152-1.152","vz8ybgzn49g3kyv",174,"55.csv","","null","resources/maskTrios/BBA1.jpg","null","",NA,NA,NA,NA,""
"image-keyboard-response",469,384620,"0.0-3.152-2.152","vz8ybgzn49g3kyv",174,"55.csv","","null","resources/images/fishbone.png","null","",NA,NA,NA,NA,""
"image-keyboard-response",470,384865,"0.0-3.153-0.153","vz8ybgzn49g3kyv",174,"55.csv","","243","resources/trios/L1T2A2.jpg","38","restless",0.6,0.5,0.2,0.720015137529007,"false"
"image-keyboard-response",471,385268,"0.0-3.153-1.153","vz8ybgzn49g3kyv",174,"55.csv","","null","resources/maskTrios/BT2B.jpg","null","",NA,NA,NA,NA,""
"image-keyboard-response",472,386471,"0.0-3.153-2.153","vz8ybgzn49g3kyv",174,"55.csv","","null","resources/images/fishbone.png","null","",NA,NA,NA,NA,""
"image-keyboard-response",473,386628,"0.0-3.154-0.154","vz8ybgzn49g3kyv",174,"55.csv","","155","resources/trios/L2T2A2.jpg","37","restless",0.6,0.5,0.2,0.886672597791933,"false"
"image-keyboard-response",474,387031,"0.0-3.154-1.154","vz8ybgzn49g3kyv",174,"55.csv","","null","resources/maskTrios/L2BB.jpg","null","",NA,NA,NA,NA,""
"image-keyboard-response",475,388233,"0.0-3.154-2.154","vz8ybgzn49g3kyv",174,"55.csv","","null","resources/images/fishbone.png","null","",NA,NA,NA,NA,""
"image-keyboard-response",476,388439,"0.0-3.155-0.155","vz8ybgzn49g3kyv",174,"55.csv","","204","resources/trios/L2T4A2.jpg","39","restless",0.6,0.5,0.2,0.00518391655248063,"true"
"image-keyboard-response",477,388844,"0.0-3.155-1.155","vz8ybgzn49g3kyv",174,"55.csv","","null","resources/maskTrios/BBA2.jpg","null","",NA,NA,NA,NA,""
"image-keyboard-response",478,390047,"0.0-3.155-2.155","vz8ybgzn49g3kyv",174,"55.csv","","null","resources/images/coin2.png","null","",NA,NA,NA,NA,""
"image-keyboard-response",479,390075,"0.0-3.156-0.156","vz8ybgzn49g3kyv",174,"55.csv","","25","resources/trios/L1T2A1.jpg","38","restless",0.6,0.5,0.2,0.83410209816896,"false"
"image-keyboard-response",480,390477,"0.0-3.156-1.156","vz8ybgzn49g3kyv",174,"55.csv","","null","resources/maskTrios/BT2B.jpg","null","",NA,NA,NA,NA,""
"image-keyboard-response",481,391679,"0.0-3.156-2.156","vz8ybgzn49g3kyv",174,"55.csv","","null","resources/images/fishbone.png","null","",NA,NA,NA,NA,""
"image-keyboard-response",482,391797,"0.0-3.157-0.157","vz8ybgzn49g3kyv",174,"55.csv","","116","resources/trios/L1T4A2.jpg","37","restless",0.6,0.5,0.2,0.966536997233918,"false"
"image-keyboard-response",483,392200,"0.0-3.157-1.157","vz8ybgzn49g3kyv",174,"55.csv","","null","resources/maskTrios/L1BB.jpg","null","",NA,NA,NA,NA,""
"image-keyboard-response",484,393402,"0.0-3.157-2.157","vz8ybgzn49g3kyv",174,"55.csv","","null","resources/images/fishbone.png","null","",NA,NA,NA,NA,""
"image-keyboard-response",485,393490,"0.0-3.158-0.158","vz8ybgzn49g3kyv",174,"55.csv","","86","resources/trios/L2T4A1.jpg","37","restless",0.6,0.5,0.2,0.998185527717001,"false"
"image-keyboard-response",486,393892,"0.0-3.158-1.158","vz8ybgzn49g3kyv",174,"55.csv","","null","resources/maskTrios/L2BB.jpg","null","",NA,NA,NA,NA,""
"image-keyboard-response",487,395094,"0.0-3.158-2.158","vz8ybgzn49g3kyv",174,"55.csv","","null","resources/images/fishbone.png","null","",NA,NA,NA,NA,""
"image-keyboard-response",488,395171,"0.0-3.159-0.159","vz8ybgzn49g3kyv",174,"55.csv","","74.99999999994179","resources/trios/L1T2A2.jpg","39","restless",0.6,0.5,0.2,0.187454978262409,"true"
"image-keyboard-response",489,395574,"0.0-3.159-1.159","vz8ybgzn49g3kyv",174,"55.csv","","null","resources/maskTrios/BBA2.jpg","null","",NA,NA,NA,NA,""
"image-keyboard-response",490,396776,"0.0-3.159-2.159","vz8ybgzn49g3kyv",174,"55.csv","","null","resources/images/coin2.png","null","",NA,NA,NA,NA,""
"image-keyboard-response",491,396834,"0.0-3.160-0.160","vz8ybgzn49g3kyv",174,"55.csv","","54.00000000005821","resources/trios/L1T4A1.jpg","39","restless",0.6,0.5,0.2,0.992848222030282,"false"
"image-keyboard-response",492,397237,"0.0-3.160-1.160","vz8ybgzn49g3kyv",174,"55.csv","","null","resources/maskTrios/BBA1.jpg","null","",NA,NA,NA,NA,""
"image-keyboard-response",493,398439,"0.0-3.160-2.160","vz8ybgzn49g3kyv",174,"55.csv","","null","resources/images/fishbone.png","null","",NA,NA,NA,NA,""
"image-keyboard-response",494,398505,"0.0-3.161-0.161","vz8ybgzn49g3kyv",174,"55.csv","","64","resources/trios/L2T2A1.jpg","38","restless",0.6,0.5,0.3,0.250910324051548,"true"
"image-keyboard-response",495,398907,"0.0-3.161-1.161","vz8ybgzn49g3kyv",174,"55.csv","","null","resources/maskTrios/BT2B.jpg","null","",NA,NA,NA,NA,""
"image-keyboard-response",496,400109,"0.0-3.161-2.161","vz8ybgzn49g3kyv",174,"55.csv","","null","resources/images/coin2.png","null","",NA,NA,NA,NA,""
"image-keyboard-response",497,400149,"0.0-3.162-0.162","vz8ybgzn49g3kyv",174,"55.csv","","38.00000000005821","resources/trios/L1T2A2.jpg","39","restless",0.5,0.4,0.3,0.680162137261593,"false"
"image-keyboard-response",498,400551,"0.0-3.162-1.162","vz8ybgzn49g3kyv",174,"55.csv","","null","resources/maskTrios/BBA2.jpg","null","",NA,NA,NA,NA,""
"image-keyboard-response",499,401754,"0.0-3.162-2.162","vz8ybgzn49g3kyv",174,"55.csv","","null","resources/images/fishbone.png","null","",NA,NA,NA,NA,""
"image-keyboard-response",500,401793,"0.0-3.163-0.163","vz8ybgzn49g3kyv",174,"55.csv","","39","resources/trios/L1T4A2.jpg","37","restless",0.5,0.4,0.4,0.214464760152062,"true"
"image-keyboard-response",501,402197,"0.0-3.163-1.163","vz8ybgzn49g3kyv",174,"55.csv","","null","resources/maskTrios/L1BB.jpg","null","",NA,NA,NA,NA,""
"image-keyboard-response",502,403400,"0.0-3.163-2.163","vz8ybgzn49g3kyv",174,"55.csv","","null","resources/images/coin2.png","null","",NA,NA,NA,NA,""
"image-keyboard-response",503,403536,"0.0-3.164-0.164","vz8ybgzn49g3kyv",174,"55.csv","","134.0000000000582","resources/trios/L2T4A1.jpg","37","restless",0.5,0.4,0.4,0.545309340904549,"false"
"image-keyboard-response",504,403938,"0.0-3.164-1.164","vz8ybgzn49g3kyv",174,"55.csv","","null","resources/maskTrios/L2BB.jpg","null","",NA,NA,NA,NA,""
"image-keyboard-response",505,405141,"0.0-3.164-2.164","vz8ybgzn49g3kyv",174,"55.csv","","null","resources/images/fishbone.png","null","",NA,NA,NA,NA,""
"image-keyboard-response",506,405334,"0.0-3.165-0.165","vz8ybgzn49g3kyv",174,"55.csv","","191.0000000000582","resources/trios/L2T4A2.jpg","38","restless",0.5,0.4,0.4,0.488135123603024,"false"
"image-keyboard-response",507,405738,"0.0-3.165-1.165","vz8ybgzn49g3kyv",174,"55.csv","","null","resources/maskTrios/BT4B.jpg","null","",NA,NA,NA,NA,""
"image-keyboard-response",508,406940,"0.0-3.165-2.165","vz8ybgzn49g3kyv",174,"55.csv","","null","resources/images/fishbone.png","null","",NA,NA,NA,NA,""
"image-keyboard-response",509,407132,"0.0-3.166-0.166","vz8ybgzn49g3kyv",174,"55.csv","","190.0000000000582","resources/trios/L2T2A1.jpg","37","restless",0.5,0.4,0.4,0.42601528863126,"true"
"image-keyboard-response",510,407535,"0.0-3.166-1.166","vz8ybgzn49g3kyv",174,"55.csv","","null","resources/maskTrios/L2BB.jpg","null","",NA,NA,NA,NA,""
"image-keyboard-response",511,408738,"0.0-3.166-2.166","vz8ybgzn49g3kyv",174,"55.csv","","null","resources/images/coin2.png","null","",NA,NA,NA,NA,""
"image-keyboard-response",512,408798,"0.0-3.167-0.167","vz8ybgzn49g3kyv",174,"55.csv","","58.00000000005821","resources/trios/L2T4A1.jpg","39","restless",0.5,0.4,0.4,0.762397989136426,"false"
"image-keyboard-response",513,409201,"0.0-3.167-1.167","vz8ybgzn49g3kyv",174,"55.csv","","null","resources/maskTrios/BBA1.jpg","null","",NA,NA,NA,NA,""
"image-keyboard-response",514,410403,"0.0-3.167-2.167","vz8ybgzn49g3kyv",174,"55.csv","","null","resources/images/fishbone.png","null","",NA,NA,NA,NA,""
"image-keyboard-response",515,410504,"0.0-3.168-0.168","vz8ybgzn49g3kyv",174,"55.csv","","98","resources/trios/L2T2A2.jpg","37","restless",0.5,0.4,0.4,0.900189696317942,"false"
"image-keyboard-response",516,410906,"0.0-3.168-1.168","vz8ybgzn49g3kyv",174,"55.csv","","null","resources/maskTrios/L2BB.jpg","null","",NA,NA,NA,NA,""
"image-keyboard-response",517,412108,"0.0-3.168-2.168","vz8ybgzn49g3kyv",174,"55.csv","","null","resources/images/fishbone.png","null","",NA,NA,NA,NA,""
"image-keyboard-response",518,412248,"0.0-3.169-0.169","vz8ybgzn49g3kyv",174,"55.csv","","134.9999999999418","resources/trios/L2T4A2.jpg","39","restless",0.5,0.4,0.4,0.42974629922803,"false"
"image-keyboard-response",519,412650,"0.0-3.169-1.169","vz8ybgzn49g3kyv",174,"55.csv","","null","resources/maskTrios/BBA2.jpg","null","",NA,NA,NA,NA,""
"image-keyboard-response",520,413852,"0.0-3.169-2.169","vz8ybgzn49g3kyv",174,"55.csv","","null","resources/images/fishbone.png","null","",NA,NA,NA,NA,""
"image-keyboard-response",521,413946,"0.0-3.170-0.170","vz8ybgzn49g3kyv",174,"55.csv","","93.00000000005821","resources/trios/L1T4A2.jpg","38","restless",0.5,0.4,0.4,0.0714706716323422,"true"
"image-keyboard-response",522,414348,"0.0-3.170-1.170","vz8ybgzn49g3kyv",174,"55.csv","","null","resources/maskTrios/BT4B.jpg","null","",NA,NA,NA,NA,""
"image-keyboard-response",523,415551,"0.0-3.170-2.170","vz8ybgzn49g3kyv",174,"55.csv","","null","resources/images/coin2.png","null","",NA,NA,NA,NA,""
"image-keyboard-response",524,415607,"0.0-3.171-0.171","vz8ybgzn49g3kyv",174,"55.csv","","53.00000000005821","resources/trios/L1T2A2.jpg","37","restless",0.6,0.4,0.4,0.0677866077515379,"true"
"image-keyboard-response",525,416011,"0.0-3.171-1.171","vz8ybgzn49g3kyv",174,"55.csv","","null","resources/maskTrios/L1BB.jpg","null","",NA,NA,NA,NA,""
"image-keyboard-response",526,417214,"0.0-3.171-2.171","vz8ybgzn49g3kyv",174,"55.csv","","null","resources/images/coin2.png","null","",NA,NA,NA,NA,""
"image-keyboard-response",527,417427,"0.0-3.172-0.172","vz8ybgzn49g3kyv",174,"55.csv","","212","resources/trios/L1T4A2.jpg","39","restless",0.6,0.4,0.4,0.565511424426612,"false"
"image-keyboard-response",528,417831,"0.0-3.172-1.172","vz8ybgzn49g3kyv",174,"55.csv","","null","resources/maskTrios/BBA2.jpg","null","",NA,NA,NA,NA,""
"image-keyboard-response",529,419033,"0.0-3.172-2.172","vz8ybgzn49g3kyv",174,"55.csv","","null","resources/images/fishbone.png","null","",NA,NA,NA,NA,""
"image-keyboard-response",530,419371,"0.0-3.173-0.173","vz8ybgzn49g3kyv",174,"55.csv","","336","resources/trios/L1T2A2.jpg","38","restless",0.6,0.4,0.4,0.681196102100715,"false"
"image-keyboard-response",531,419774,"0.0-3.173-1.173","vz8ybgzn49g3kyv",174,"55.csv","","null","resources/maskTrios/BT2B.jpg","null","",NA,NA,NA,NA,""
"image-keyboard-response",532,420977,"0.0-3.173-2.173","vz8ybgzn49g3kyv",174,"55.csv","","null","resources/images/fishbone.png","null","",NA,NA,NA,NA,""
"image-keyboard-response",533,421015,"0.0-3.174-0.174","vz8ybgzn49g3kyv",174,"55.csv","","37","resources/trios/L2T4A1.jpg","37","restless",0.6,0.4,0.4,0.222113507109912,"true"
"image-keyboard-response",534,421417,"0.0-3.174-1.174","vz8ybgzn49g3kyv",174,"55.csv","","null","resources/maskTrios/L2BB.jpg","null","",NA,NA,NA,NA,""
"image-keyboard-response",535,422620,"0.0-3.174-2.174","vz8ybgzn49g3kyv",174,"55.csv","","null","resources/images/coin2.png","null","",NA,NA,NA,NA,""
"image-keyboard-response",536,422643,"0.0-3.175-0.175","vz8ybgzn49g3kyv",174,"55.csv","","20","resources/trios/L2T4A1.jpg","39","restless",0.6,0.4,0.4,0.454922065244684,"false"
"image-keyboard-response",537,423045,"0.0-3.175-1.175","vz8ybgzn49g3kyv",174,"55.csv","","null","resources/maskTrios/BBA1.jpg","null","",NA,NA,NA,NA,""
"image-keyboard-response",538,424248,"0.0-3.175-2.175","vz8ybgzn49g3kyv",174,"55.csv","","null","resources/images/fishbone.png","null","",NA,NA,NA,NA,""
"image-keyboard-response",539,424405,"0.0-3.176-0.176","vz8ybgzn49g3kyv",174,"55.csv","","156","resources/trios/L1T4A1.jpg","37","restless",0.6,0.4,0.4,0.142586697535946,"true"
"image-keyboard-response",540,424808,"0.0-3.176-1.176","vz8ybgzn49g3kyv",174,"55.csv","","null","resources/maskTrios/L1BB.jpg","null","",NA,NA,NA,NA,""
"image-keyboard-response",541,426011,"0.0-3.176-2.176","vz8ybgzn49g3kyv",174,"55.csv","","null","resources/images/coin2.png","null","",NA,NA,NA,NA,""
"image-keyboard-response",542,426116,"0.0-3.177-0.177","vz8ybgzn49g3kyv",174,"55.csv","","103","resources/trios/L1T2A2.jpg","37","restless",0.6,0.4,0.4,0.0551058423065436,"true"
"image-keyboard-response",543,426517,"0.0-3.177-1.177","vz8ybgzn49g3kyv",174,"55.csv","","null","resources/maskTrios/L1BB.jpg","null","",NA,NA,NA,NA,""
"image-keyboard-response",544,427719,"0.0-3.177-2.177","vz8ybgzn49g3kyv",174,"55.csv","","null","resources/images/coin2.png","null","",NA,NA,NA,NA,""
"image-keyboard-response",545,427820,"0.0-3.178-0.178","vz8ybgzn49g3kyv",174,"55.csv","","98","resources/trios/L1T4A1.jpg","37","restless",0.6,0.3,0.4,0.201073071108033,"true"
"image-keyboard-response",546,428223,"0.0-3.178-1.178","vz8ybgzn49g3kyv",174,"55.csv","","null","resources/maskTrios/L1BB.jpg","null","",NA,NA,NA,NA,""
"image-keyboard-response",547,429425,"0.0-3.178-2.178","vz8ybgzn49g3kyv",174,"55.csv","","null","resources/images/coin2.png","null","",NA,NA,NA,NA,""
"image-keyboard-response",548,429620,"0.0-3.179-0.179","vz8ybgzn49g3kyv",174,"55.csv","","192.0000000000582","resources/trios/L1T4A1.jpg","37","restless",0.6,0.3,0.3,0.122113459505847,"true"
"image-keyboard-response",549,430023,"0.0-3.179-1.179","vz8ybgzn49g3kyv",174,"55.csv","","null","resources/maskTrios/L1BB.jpg","null","",NA,NA,NA,NA,""
"image-keyboard-response",550,431226,"0.0-3.179-2.179","vz8ybgzn49g3kyv",174,"55.csv","","null","resources/images/coin2.png","null","",NA,NA,NA,NA,""
"image-keyboard-response",551,431355,"0.0-3.180-0.180","vz8ybgzn49g3kyv",174,"55.csv","","127","resources/trios/L2T2A1.jpg","37","restless",0.6,0.3,0.3,0.74390036195852,"false"
"image-keyboard-response",552,431758,"0.0-3.180-1.180","vz8ybgzn49g3kyv",174,"55.csv","","null","resources/maskTrios/L2BB.jpg","null","",NA,NA,NA,NA,""
"image-keyboard-response",553,432961,"0.0-3.180-2.180","vz8ybgzn49g3kyv",174,"55.csv","","null","resources/images/fishbone.png","null","",NA,NA,NA,NA,""
"image-keyboard-response",554,432971,"0.0-3.181-0.181","vz8ybgzn49g3kyv",174,"55.csv","","7.999999999941792","resources/trios/L2T2A1.jpg","38","restless",0.6,0.2,0.3,0.834138242784199,"false"
"image-keyboard-response",555,433373,"0.0-3.181-1.181","vz8ybgzn49g3kyv",174,"55.csv","","null","resources/maskTrios/BT2B.jpg","null","",NA,NA,NA,NA,""
"image-keyboard-response",556,434576,"0.0-3.181-2.181","vz8ybgzn49g3kyv",174,"55.csv","","null","resources/images/fishbone.png","null","",NA,NA,NA,NA,""
"image-keyboard-response",557,434646,"0.0-3.182-0.182","vz8ybgzn49g3kyv",174,"55.csv","","69","resources/trios/L2T4A2.jpg","37","restless",0.6,0.2,0.3,0.232121301612207,"true"
"image-keyboard-response",558,435049,"0.0-3.182-1.182","vz8ybgzn49g3kyv",174,"55.csv","","null","resources/maskTrios/L2BB.jpg","null","",NA,NA,NA,NA,""
"image-keyboard-response",559,436252,"0.0-3.182-2.182","vz8ybgzn49g3kyv",174,"55.csv","","null","resources/images/coin2.png","null","",NA,NA,NA,NA,""
"image-keyboard-response",560,436259,"0.0-3.183-0.183","vz8ybgzn49g3kyv",174,"55.csv","","5","resources/trios/L2T4A1.jpg","37","restless",0.6,0.2,0.4,0.180417142226886,"true"
"image-keyboard-response",561,436661,"0.0-3.183-1.183","vz8ybgzn49g3kyv",174,"55.csv","","null","resources/maskTrios/L2BB.jpg","null","",NA,NA,NA,NA,""
"image-keyboard-response",562,437864,"0.0-3.183-2.183","vz8ybgzn49g3kyv",174,"55.csv","","null","resources/images/coin2.png","null","",NA,NA,NA,NA,""
"image-keyboard-response",563,437908,"0.0-3.184-0.184","vz8ybgzn49g3kyv",174,"55.csv","","40","resources/trios/L1T4A1.jpg","37","restless",0.6,0.2,0.4,0.210664099928751,"true"
"image-keyboard-response",564,438310,"0.0-3.184-1.184","vz8ybgzn49g3kyv",174,"55.csv","","null","resources/maskTrios/L1BB.jpg","null","",NA,NA,NA,NA,""
"image-keyboard-response",565,439513,"0.0-3.184-2.184","vz8ybgzn49g3kyv",174,"55.csv","","null","resources/images/coin2.png","null","",NA,NA,NA,NA,""
"image-keyboard-response",566,439901,"0.0-3.185-0.185","vz8ybgzn49g3kyv",174,"55.csv","","387","resources/trios/L1T4A1.jpg","37","restless",0.6,0.1,0.4,0.630685217462592,"false"
"image-keyboard-response",567,440304,"0.0-3.185-1.185","vz8ybgzn49g3kyv",174,"55.csv","","null","resources/maskTrios/L1BB.jpg","null","",NA,NA,NA,NA,""
"image-keyboard-response",568,441507,"0.0-3.185-2.185","vz8ybgzn49g3kyv",174,"55.csv","","null","resources/images/fishbone.png","null","",NA,NA,NA,NA,""
"image-keyboard-response",569,441675,"0.0-3.186-0.186","vz8ybgzn49g3kyv",174,"55.csv","","163.9999999999418","resources/trios/L2T2A2.jpg","38","restless",0.7,0.1,0.4,0.368261107951447,"false"
"image-keyboard-response",570,442079,"0.0-3.186-1.186","vz8ybgzn49g3kyv",174,"55.csv","","null","resources/maskTrios/BT2B.jpg","null","",NA,NA,NA,NA,""
"image-keyboard-response",571,443282,"0.0-3.186-2.186","vz8ybgzn49g3kyv",174,"55.csv","","null","resources/images/fishbone.png","null","",NA,NA,NA,NA,""
"image-keyboard-response",572,443589,"0.0-3.187-0.187","vz8ybgzn49g3kyv",174,"55.csv","","306","resources/trios/L2T4A1.jpg","37","restless",0.7,0.1,0.4,0.479058872285255,"true"
"image-keyboard-response",573,443992,"0.0-3.187-1.187","vz8ybgzn49g3kyv",174,"55.csv","","null","resources/maskTrios/L2BB.jpg","null","",NA,NA,NA,NA,""
"image-keyboard-response",574,445195,"0.0-3.187-2.187","vz8ybgzn49g3kyv",174,"55.csv","","null","resources/images/coin2.png","null","",NA,NA,NA,NA,""
"image-keyboard-response",575,445314,"0.0-3.188-0.188","vz8ybgzn49g3kyv",174,"55.csv","","117","resources/trios/L1T4A2.jpg","37","restless",0.7,0.2,0.4,0.248093174574127,"true"
"image-keyboard-response",576,445717,"0.0-3.188-1.188","vz8ybgzn49g3kyv",174,"55.csv","","null","resources/maskTrios/L1BB.jpg","null","",NA,NA,NA,NA,""
"image-keyboard-response",577,446920,"0.0-3.188-2.188","vz8ybgzn49g3kyv",174,"55.csv","","null","resources/images/coin2.png","null","",NA,NA,NA,NA,""
"image-keyboard-response",578,447025,"0.0-3.189-0.189","vz8ybgzn49g3kyv",174,"55.csv","","102.99999999994179","resources/trios/L2T4A2.jpg","37","restless",0.7,0.2,0.4,0.541939677969338,"true"
"image-keyboard-response",579,447428,"0.0-3.189-1.189","vz8ybgzn49g3kyv",174,"55.csv","","null","resources/maskTrios/L2BB.jpg","null","",NA,NA,NA,NA,""
"image-keyboard-response",580,448633,"0.0-3.189-2.189","vz8ybgzn49g3kyv",174,"55.csv","","null","resources/images/coin2.png","null","",NA,NA,NA,NA,""
"image-keyboard-response",581,448979,"0.0-3.190-0.190","vz8ybgzn49g3kyv",174,"55.csv","","344","resources/trios/L1T4A1.jpg","37","restless",0.7,0.3,0.4,0.373880989676408,"true"
"image-keyboard-response",582,449383,"0.0-3.190-1.190","vz8ybgzn49g3kyv",174,"55.csv","","null","resources/maskTrios/L1BB.jpg","null","",NA,NA,NA,NA,""
"image-keyboard-response",583,450586,"0.0-3.190-2.190","vz8ybgzn49g3kyv",174,"55.csv","","null","resources/images/coin2.png","null","",NA,NA,NA,NA,""
"image-keyboard-response",584,450716,"0.0-3.191-0.191","vz8ybgzn49g3kyv",174,"55.csv","","129","resources/trios/L2T4A2.jpg","37","restless",0.6,0.3,0.4,0.812558742300698,"false"
"image-keyboard-response",585,451119,"0.0-3.191-1.191","vz8ybgzn49g3kyv",174,"55.csv","","null","resources/maskTrios/L2BB.jpg","null","",NA,NA,NA,NA,""
"image-keyboard-response",586,452322,"0.0-3.191-2.191","vz8ybgzn49g3kyv",174,"55.csv","","null","resources/images/fishbone.png","null","",NA,NA,NA,NA,""
"image-keyboard-response",587,452609,"0.0-3.192-0.192","vz8ybgzn49g3kyv",174,"55.csv","","286","resources/trios/L1T2A2.jpg","38","restless",0.5,0.3,0.4,0.252993765006989,"true"
"image-keyboard-response",588,453016,"0.0-3.192-1.192","vz8ybgzn49g3kyv",174,"55.csv","","null","resources/maskTrios/BT2B.jpg","null","",NA,NA,NA,NA,""
"image-keyboard-response",589,454219,"0.0-3.192-2.192","vz8ybgzn49g3kyv",174,"55.csv","","null","resources/images/coin2.png","null","",NA,NA,NA,NA,""
"image-keyboard-response",590,454384,"0.0-3.193-0.193","vz8ybgzn49g3kyv",174,"55.csv","","162","resources/trios/L1T2A2.jpg","37","restless",0.5,0.3,0.4,0.59778514690304,"false"
"image-keyboard-response",591,454787,"0.0-3.193-1.193","vz8ybgzn49g3kyv",174,"55.csv","","null","resources/maskTrios/L1BB.jpg","null","",NA,NA,NA,NA,""
"image-keyboard-response",592,455990,"0.0-3.193-2.193","vz8ybgzn49g3kyv",174,"55.csv","","null","resources/images/fishbone.png","null","",NA,NA,NA,NA,""
"image-keyboard-response",593,456156,"0.0-3.194-0.194","vz8ybgzn49g3kyv",174,"55.csv","","165","resources/trios/L1T4A1.jpg","38","restless",0.4,0.3,0.4,0.244178992381472,"true"
"image-keyboard-response",594,456559,"0.0-3.194-1.194","vz8ybgzn49g3kyv",174,"55.csv","","null","resources/maskTrios/BT4B.jpg","null","",NA,NA,NA,NA,""
"image-keyboard-response",595,457762,"0.0-3.194-2.194","vz8ybgzn49g3kyv",174,"55.csv","","null","resources/images/coin2.png","null","",NA,NA,NA,NA,""
"image-keyboard-response",596,457954,"0.0-3.195-0.195","vz8ybgzn49g3kyv",174,"55.csv","","190","resources/trios/L2T2A1.jpg","37","restless",0.4,0.3,0.4,0.0597214209031576,"true"
"image-keyboard-response",597,458358,"0.0-3.195-1.195","vz8ybgzn49g3kyv",174,"55.csv","","null","resources/maskTrios/L2BB.jpg","null","",NA,NA,NA,NA,""
"image-keyboard-response",598,459560,"0.0-3.195-2.195","vz8ybgzn49g3kyv",174,"55.csv","","null","resources/images/coin2.png","null","",NA,NA,NA,NA,""
"image-keyboard-response",599,459740,"0.0-3.196-0.196","vz8ybgzn49g3kyv",174,"55.csv","","178","resources/trios/L2T2A1.jpg","37","restless",0.4,0.3,0.4,0.0570210730028494,"true"
"image-keyboard-response",600,460145,"0.0-3.196-1.196","vz8ybgzn49g3kyv",174,"55.csv","","null","resources/maskTrios/L2BB.jpg","null","",NA,NA,NA,NA,""
"image-keyboard-response",601,461347,"0.0-3.196-2.196","vz8ybgzn49g3kyv",174,"55.csv","","null","resources/images/coin2.png","null","",NA,NA,NA,NA,""
"image-keyboard-response",602,461599,"0.0-3.197-0.197","vz8ybgzn49g3kyv",174,"55.csv","","250","resources/trios/L2T2A2.jpg","37","restless",0.4,0.3,0.5,0.721032762891345,"false"
"image-keyboard-response",603,462003,"0.0-3.197-1.197","vz8ybgzn49g3kyv",174,"55.csv","","null","resources/maskTrios/L2BB.jpg","null","",NA,NA,NA,NA,""
"image-keyboard-response",604,463205,"0.0-3.197-2.197","vz8ybgzn49g3kyv",174,"55.csv","","null","resources/images/fishbone.png","null","",NA,NA,NA,NA,""
"image-keyboard-response",605,463232,"0.0-3.198-0.198","vz8ybgzn49g3kyv",174,"55.csv","","25.000000000058208","resources/trios/L1T2A1.jpg","38","restless",0.4,0.3,0.5,0.28121829440794,"true"
"image-keyboard-response",606,463634,"0.0-3.198-1.198","vz8ybgzn49g3kyv",174,"55.csv","","null","resources/maskTrios/BT2B.jpg","null","",NA,NA,NA,NA,""
"image-keyboard-response",607,464836,"0.0-3.198-2.198","vz8ybgzn49g3kyv",174,"55.csv","","null","resources/images/coin2.png","null","",NA,NA,NA,NA,""
"image-keyboard-response",608,465042,"0.0-3.199-0.199","vz8ybgzn49g3kyv",174,"55.csv","","200","resources/trios/L1T4A2.jpg","38","restless",0.4,0.3,0.6,0.0908760856667444,"true"
"image-keyboard-response",609,465445,"0.0-3.199-1.199","vz8ybgzn49g3kyv",174,"55.csv","","null","resources/maskTrios/BT4B.jpg","null","",NA,NA,NA,NA,""
"image-keyboard-response",610,466649,"0.0-3.199-2.199","vz8ybgzn49g3kyv",174,"55.csv","","null","resources/images/coin2.png","null","",NA,NA,NA,NA,""
"image-keyboard-response",611,466897,"0.0-3.200-0.200","vz8ybgzn49g3kyv",174,"55.csv","","246","resources/trios/L1T2A2.jpg","38","restless",0.3,0.3,0.6,0.435585636352842,"false"
"image-keyboard-response",612,467300,"0.0-3.200-1.200","vz8ybgzn49g3kyv",174,"55.csv","","null","resources/maskTrios/BT2B.jpg","null","",NA,NA,NA,NA,""
"image-keyboard-response",613,468502,"0.0-3.200-2.200","vz8ybgzn49g3kyv",174,"55.csv","","null","resources/images/fishbone.png","null","",NA,NA,NA,NA,""
"image-keyboard-response",614,468651,"0.0-3.201-0.201","vz8ybgzn49g3kyv",174,"55.csv","","146","resources/trios/L1T2A2.jpg","37","restless",0.3,0.3,0.6,0.300395037703806,"false"
"image-keyboard-response",615,469054,"0.0-3.201-1.201","vz8ybgzn49g3kyv",174,"55.csv","","null","resources/maskTrios/L1BB.jpg","null","",NA,NA,NA,NA,""
"image-keyboard-response",616,470257,"0.0-3.201-2.201","vz8ybgzn49g3kyv",174,"55.csv","","null","resources/images/fishbone.png","null","",NA,NA,NA,NA,""
"image-keyboard-response",617,470413,"0.0-3.202-0.202","vz8ybgzn49g3kyv",174,"55.csv","","154","resources/trios/L2T2A2.jpg","39","restless",0.3,0.3,0.6,0.421665663989309,"true"
"image-keyboard-response",618,470816,"0.0-3.202-1.202","vz8ybgzn49g3kyv",174,"55.csv","","null","resources/maskTrios/BBA2.jpg","null","",NA,NA,NA,NA,""
"image-keyboard-response",619,472019,"0.0-3.202-2.202","vz8ybgzn49g3kyv",174,"55.csv","","null","resources/images/coin2.png","null","",NA,NA,NA,NA,""
"image-keyboard-response",620,472079,"0.0-3.203-0.203","vz8ybgzn49g3kyv",174,"55.csv","","58","resources/trios/L1T4A1.jpg","39","restless",0.3,0.3,0.6,0.984786163891471,"false"
