"trial_type","trial_index","time_elapsed","internal_node_id","subject","participantCode","walkNumber","success","rt","stimulus","key_press","test_part","leftProb","midProb","rightProb","generatedNum","correct"
"pavlovia",0,1568,"0.0-0.0","s942g0ub4j3kxvm",594,"136.csv","","","","","",NA,NA,NA,NA,""
"fullscreen",1,6014,"0.0-1.0","s942g0ub4j3kxvm",594,"136.csv","true","","","","",NA,NA,NA,NA,""
"html-keyboard-response",2,16152,"0.0-2.0-0.0","s942g0ub4j3kxvm",594,"136.csv","","10135.5","<p><font size='6'>Arrrgh!</p></font><p>Can you be the best pirate? Try to find lots of gold! But beware, some islands have more gold than others, and over time, the island with the most gold may change. Can YOU figure it out? </p><font size='6'>GOOD LUCK, CAPTAIN!!!</font><p>Press any key to begin</p>","32","",NA,NA,NA,NA,""
"image-keyboard-response",3,19169,"0.0-2.0-1.0","s942g0ub4j3kxvm",594,"136.csv","","null","resources/image_sets/111.png","null","",NA,NA,NA,NA,""
"image-keyboard-response",4,31502,"0.0-2.0-2.0","s942g0ub4j3kxvm",594,"136.csv","","12330.599999904633","resources/image_sets/left_highlight.png","37","",NA,NA,NA,NA,""
"image-keyboard-response",5,32799,"0.0-2.0-3.0","s942g0ub4j3kxvm",594,"136.csv","","1294.1999998092651","resources/image_sets/mid_highlight.png","38","",NA,NA,NA,NA,""
"image-keyboard-response",6,33259,"0.0-2.0-4.0","s942g0ub4j3kxvm",594,"136.csv","","458.40000009536743","resources/image_sets/right_highlight.png","39","",NA,NA,NA,NA,""
"image-keyboard-response",7,34457,"0.0-2.0-5.0","s942g0ub4j3kxvm",594,"136.csv","","1195.7999997138977","resources/image_sets/111.png","13","",NA,NA,NA,NA,""
"image-keyboard-response",8,37224,"0.0-2.0-6.0","s942g0ub4j3kxvm",594,"136.csv","","2767.0999999046326","resources/images/coin2.png","13","",NA,NA,NA,NA,""
"image-keyboard-response",9,38552,"0.0-2.0-7.0","s942g0ub4j3kxvm",594,"136.csv","","1326.1999998092651","resources/images/fishbone.png","13","",NA,NA,NA,NA,""
"html-keyboard-response",10,41623,"0.0-2.0-8.0","s942g0ub4j3kxvm",594,"136.csv","","3070.5999999046326","<p>Your first journey will be a long one, but you will get a well deserved break at the end</p><p>After the break you will have four more journeys, but each will be much shorter than the first, and you will have breaks in between each</p><p>Press Enter to begin</p>","13","",NA,NA,NA,NA,""
"image-keyboard-response",11,43711,"0.0-3.0-0.0","s942g0ub4j3kxvm",594,"136.csv","","2086.2999997138977","resources/trios/L1T2A2.jpg","38","restless",0.3,0.9,0.7,0.178649012011369,"true"
"image-keyboard-response",12,44128,"0.0-3.0-1.0","s942g0ub4j3kxvm",594,"136.csv","","null","resources/maskTrios/BT2B.jpg","null","",NA,NA,NA,NA,""
"image-keyboard-response",13,45335,"0.0-3.0-2.0","s942g0ub4j3kxvm",594,"136.csv","","null","resources/images/coin2.png","null","",NA,NA,NA,NA,""
"image-keyboard-response",14,47043,"0.0-3.1-0.1","s942g0ub4j3kxvm",594,"136.csv","","1706.6999998092651","resources/trios/L4T1A1.jpg","37","restless",0.3,0.9,0.7,0.657820392086577,"false"
"image-keyboard-response",15,47456,"0.0-3.1-1.1","s942g0ub4j3kxvm",594,"136.csv","","null","resources/maskTrios/L4BB.jpg","null","",NA,NA,NA,NA,""
"image-keyboard-response",16,48666,"0.0-3.1-2.1","s942g0ub4j3kxvm",594,"136.csv","","null","resources/images/fishbone.png","null","",NA,NA,NA,NA,""
"image-keyboard-response",17,51448,"0.0-3.2-0.2","s942g0ub4j3kxvm",594,"136.csv","","2780.7000002861023","resources/trios/L4T1A2.jpg","38","restless",0.3,0.9,0.6,0.463870054342682,"true"
"image-keyboard-response",18,51854,"0.0-3.2-1.2","s942g0ub4j3kxvm",594,"136.csv","","null","resources/maskTrios/BT1B.jpg","null","",NA,NA,NA,NA,""
"image-keyboard-response",19,53063,"0.0-3.2-2.2","s942g0ub4j3kxvm",594,"136.csv","","null","resources/images/coin2.png","null","",NA,NA,NA,NA,""
"image-keyboard-response",20,72386,"0.0-3.3-0.3","s942g0ub4j3kxvm",594,"136.csv","","19328.599999904633","resources/trios/L4T1A2.jpg","37","restless",0.3,0.8,0.6,0.508546489769529,"false"
"image-keyboard-response",21,72799,"0.0-3.3-1.3","s942g0ub4j3kxvm",594,"136.csv","","null","resources/maskTrios/L4BB.jpg","null","",NA,NA,NA,NA,""
"image-keyboard-response",22,74005,"0.0-3.3-2.3","s942g0ub4j3kxvm",594,"136.csv","","null","resources/images/fishbone.png","null","",NA,NA,NA,NA,""
"image-keyboard-response",23,74380,"0.0-3.4-0.4","s942g0ub4j3kxvm",594,"136.csv","","372.40000009536743","resources/trios/L1T1A1.jpg","38","restless",0.3,0.8,0.6,0.330564342313855,"true"
"image-keyboard-response",24,74792,"0.0-3.4-1.4","s942g0ub4j3kxvm",594,"136.csv","","null","resources/maskTrios/BT1B.jpg","null","",NA,NA,NA,NA,""
"image-keyboard-response",25,76004,"0.0-3.4-2.4","s942g0ub4j3kxvm",594,"136.csv","","null","resources/images/coin2.png","null","",NA,NA,NA,NA,""
"image-keyboard-response",26,77155,"0.0-3.5-0.5","s942g0ub4j3kxvm",594,"136.csv","","1149.1000003814697","resources/trios/L4T2A1.jpg","38","restless",0.3,0.8,0.6,0.790734677580105,"true"
"image-keyboard-response",27,77561,"0.0-3.5-1.5","s942g0ub4j3kxvm",594,"136.csv","","null","resources/maskTrios/BT2B.jpg","null","",NA,NA,NA,NA,""
"image-keyboard-response",28,78780,"0.0-3.5-2.5","s942g0ub4j3kxvm",594,"136.csv","","null","resources/images/coin2.png","null","",NA,NA,NA,NA,""
"image-keyboard-response",29,80288,"0.0-3.6-0.6","s942g0ub4j3kxvm",594,"136.csv","","1506.1999998092651","resources/trios/L1T2A1.jpg","38","restless",0.3,0.8,0.6,0.0879410439444022,"true"
"image-keyboard-response",30,80701,"0.0-3.6-1.6","s942g0ub4j3kxvm",594,"136.csv","","null","resources/maskTrios/BT2B.jpg","null","",NA,NA,NA,NA,""
"image-keyboard-response",31,81912,"0.0-3.6-2.6","s942g0ub4j3kxvm",594,"136.csv","","null","resources/images/coin2.png","null","",NA,NA,NA,NA,""
"image-keyboard-response",32,82588,"0.0-3.7-0.7","s942g0ub4j3kxvm",594,"136.csv","","674.6999998092651","resources/trios/L4T1A1.jpg","38","restless",0.3,0.8,0.6,0.169048887776508,"true"
"image-keyboard-response",33,82996,"0.0-3.7-1.7","s942g0ub4j3kxvm",594,"136.csv","","null","resources/maskTrios/BT1B.jpg","null","",NA,NA,NA,NA,""
"image-keyboard-response",34,84213,"0.0-3.7-2.7","s942g0ub4j3kxvm",594,"136.csv","","null","resources/images/coin2.png","null","",NA,NA,NA,NA,""
"image-keyboard-response",35,84737,"0.0-3.8-0.8","s942g0ub4j3kxvm",594,"136.csv","","521.7000002861023","resources/trios/L4T1A2.jpg","38","restless",0.3,0.7,0.6,0.0577037312068474,"true"
"image-keyboard-response",36,85140,"0.0-3.8-1.8","s942g0ub4j3kxvm",594,"136.csv","","null","resources/maskTrios/BT1B.jpg","null","",NA,NA,NA,NA,""
"image-keyboard-response",37,86345,"0.0-3.8-2.8","s942g0ub4j3kxvm",594,"136.csv","","null","resources/images/coin2.png","null","",NA,NA,NA,NA,""
"image-keyboard-response",38,87114,"0.0-3.9-0.9","s942g0ub4j3kxvm",594,"136.csv","","766.1999998092651","resources/trios/L4T2A1.jpg","38","restless",0.3,0.6,0.7,0.189821900802288,"true"
"image-keyboard-response",39,87525,"0.0-3.9-1.9","s942g0ub4j3kxvm",594,"136.csv","","null","resources/maskTrios/BT2B.jpg","null","",NA,NA,NA,NA,""
"image-keyboard-response",40,88729,"0.0-3.9-2.9","s942g0ub4j3kxvm",594,"136.csv","","null","resources/images/coin2.png","null","",NA,NA,NA,NA,""
"image-keyboard-response",41,89223,"0.0-3.10-0.10","s942g0ub4j3kxvm",594,"136.csv","","491.59999990463257","resources/trios/L4T2A2.jpg","38","restless",0.3,0.6,0.6,0.791109726847733,"false"
"image-keyboard-response",42,89630,"0.0-3.10-1.10","s942g0ub4j3kxvm",594,"136.csv","","null","resources/maskTrios/BT2B.jpg","null","",NA,NA,NA,NA,""
"image-keyboard-response",43,90845,"0.0-3.10-2.10","s942g0ub4j3kxvm",594,"136.csv","","null","resources/images/fishbone.png","null","",NA,NA,NA,NA,""
"image-keyboard-response",44,92319,"0.0-3.11-0.11","s942g0ub4j3kxvm",594,"136.csv","","1472.0999999046326","resources/trios/L4T2A2.jpg","37","restless",0.3,0.6,0.6,0.184912011424887,"true"
"image-keyboard-response",45,92731,"0.0-3.11-1.11","s942g0ub4j3kxvm",594,"136.csv","","null","resources/maskTrios/L4BB.jpg","null","",NA,NA,NA,NA,""
"image-keyboard-response",46,93944,"0.0-3.11-2.11","s942g0ub4j3kxvm",594,"136.csv","","null","resources/images/coin2.png","null","",NA,NA,NA,NA,""
"image-keyboard-response",47,95435,"0.0-3.12-0.12","s942g0ub4j3kxvm",594,"136.csv","","1489.0999999046326","resources/trios/L4T2A2.jpg","38","restless",0.3,0.6,0.7,0.192950549952217,"true"
"image-keyboard-response",48,95847,"0.0-3.12-1.12","s942g0ub4j3kxvm",594,"136.csv","","null","resources/maskTrios/BT2B.jpg","null","",NA,NA,NA,NA,""
"image-keyboard-response",49,97055,"0.0-3.12-2.12","s942g0ub4j3kxvm",594,"136.csv","","null","resources/images/coin2.png","null","",NA,NA,NA,NA,""
"image-keyboard-response",50,98834,"0.0-3.13-0.13","s942g0ub4j3kxvm",594,"136.csv","","1776.1999998092651","resources/trios/L4T2A1.jpg","37","restless",0.2,0.6,0.7,0.679616829612396,"false"
"image-keyboard-response",51,99248,"0.0-3.13-1.13","s942g0ub4j3kxvm",594,"136.csv","","null","resources/maskTrios/L4BB.jpg","null","",NA,NA,NA,NA,""
"image-keyboard-response",52,100456,"0.0-3.13-2.13","s942g0ub4j3kxvm",594,"136.csv","","null","resources/images/fishbone.png","null","",NA,NA,NA,NA,""
"image-keyboard-response",53,105043,"0.0-3.14-0.14","s942g0ub4j3kxvm",594,"136.csv","","4584.300000190735","resources/trios/L1T2A2.jpg","37","restless",0.2,0.6,0.7,0.02542075395022,"true"
"image-keyboard-response",54,105457,"0.0-3.14-1.14","s942g0ub4j3kxvm",594,"136.csv","","null","resources/maskTrios/L1BB.jpg","null","",NA,NA,NA,NA,""
"image-keyboard-response",55,106668,"0.0-3.14-2.14","s942g0ub4j3kxvm",594,"136.csv","","null","resources/images/coin2.png","null","",NA,NA,NA,NA,""
"image-keyboard-response",56,107390,"0.0-3.15-0.15","s942g0ub4j3kxvm",594,"136.csv","","719.3000001907349","resources/trios/L4T1A2.jpg","38","restless",0.2,0.6,0.7,0.384302345261501,"true"
"image-keyboard-response",57,107805,"0.0-3.15-1.15","s942g0ub4j3kxvm",594,"136.csv","","null","resources/maskTrios/BT1B.jpg","null","",NA,NA,NA,NA,""
"image-keyboard-response",58,109013,"0.0-3.15-2.15","s942g0ub4j3kxvm",594,"136.csv","","null","resources/images/coin2.png","null","",NA,NA,NA,NA,""
"image-keyboard-response",59,111370,"0.0-3.16-0.16","s942g0ub4j3kxvm",594,"136.csv","","2354.9000000953674","resources/trios/L1T2A1.jpg","38","restless",0.2,0.7,0.7,0.0213580530250306,"true"
"image-keyboard-response",60,111776,"0.0-3.16-1.16","s942g0ub4j3kxvm",594,"136.csv","","null","resources/maskTrios/BT2B.jpg","null","",NA,NA,NA,NA,""
"image-keyboard-response",61,112983,"0.0-3.16-2.16","s942g0ub4j3kxvm",594,"136.csv","","null","resources/images/coin2.png","null","",NA,NA,NA,NA,""
"image-keyboard-response",62,113610,"0.0-3.17-0.17","s942g0ub4j3kxvm",594,"136.csv","","624.9000000953674","resources/trios/L1T2A1.jpg","37","restless",0.2,0.7,0.7,0.996560544805843,"false"
"image-keyboard-response",63,114023,"0.0-3.17-1.17","s942g0ub4j3kxvm",594,"136.csv","","null","resources/maskTrios/L1BB.jpg","null","",NA,NA,NA,NA,""
"image-keyboard-response",64,115230,"0.0-3.17-2.17","s942g0ub4j3kxvm",594,"136.csv","","null","resources/images/fishbone.png","null","",NA,NA,NA,NA,""
"image-keyboard-response",65,116365,"0.0-3.18-0.18","s942g0ub4j3kxvm",594,"136.csv","","1133.1999998092651","resources/trios/L4T1A2.jpg","38","restless",0.2,0.7,0.6,0.170239814078017,"true"
"image-keyboard-response",66,116780,"0.0-3.18-1.18","s942g0ub4j3kxvm",594,"136.csv","","null","resources/maskTrios/BT1B.jpg","null","",NA,NA,NA,NA,""
"image-keyboard-response",67,117985,"0.0-3.18-2.18","s942g0ub4j3kxvm",594,"136.csv","","null","resources/images/coin2.png","null","",NA,NA,NA,NA,""
"image-keyboard-response",68,119245,"0.0-3.19-0.19","s942g0ub4j3kxvm",594,"136.csv","","1258.0999999046326","resources/trios/L4T2A1.jpg","38","restless",0.2,0.7,0.6,0.686830072638626,"true"
"image-keyboard-response",69,119653,"0.0-3.19-1.19","s942g0ub4j3kxvm",594,"136.csv","","null","resources/maskTrios/BT2B.jpg","null","",NA,NA,NA,NA,""
"image-keyboard-response",70,120868,"0.0-3.19-2.19","s942g0ub4j3kxvm",594,"136.csv","","null","resources/images/coin2.png","null","",NA,NA,NA,NA,""
"image-keyboard-response",71,124190,"0.0-3.20-0.20","s942g0ub4j3kxvm",594,"136.csv","","3319.5","resources/trios/L1T1A1.jpg","38","restless",0.2,0.7,0.6,0.632148171839394,"true"
"image-keyboard-response",72,124608,"0.0-3.20-1.20","s942g0ub4j3kxvm",594,"136.csv","","null","resources/maskTrios/BT1B.jpg","null","",NA,NA,NA,NA,""
"image-keyboard-response",73,125815,"0.0-3.20-2.20","s942g0ub4j3kxvm",594,"136.csv","","null","resources/images/coin2.png","null","",NA,NA,NA,NA,""
"image-keyboard-response",74,126877,"0.0-3.21-0.21","s942g0ub4j3kxvm",594,"136.csv","","1061.2000002861023","resources/trios/L1T1A1.jpg","37","restless",0.2,0.7,0.6,0.563376469504564,"false"
"image-keyboard-response",75,127284,"0.0-3.21-1.21","s942g0ub4j3kxvm",594,"136.csv","","null","resources/maskTrios/L1BB.jpg","null","",NA,NA,NA,NA,""
"image-keyboard-response",76,128496,"0.0-3.21-2.21","s942g0ub4j3kxvm",594,"136.csv","","null","resources/images/fishbone.png","null","",NA,NA,NA,NA,""
"image-keyboard-response",77,129331,"0.0-3.22-0.22","s942g0ub4j3kxvm",594,"136.csv","","832.5999999046326","resources/trios/L4T1A2.jpg","38","restless",0.2,0.7,0.6,0.742103446810242,"false"
"image-keyboard-response",78,129738,"0.0-3.22-1.22","s942g0ub4j3kxvm",594,"136.csv","","null","resources/maskTrios/BT1B.jpg","null","",NA,NA,NA,NA,""
"image-keyboard-response",79,130946,"0.0-3.22-2.22","s942g0ub4j3kxvm",594,"136.csv","","null","resources/images/fishbone.png","null","",NA,NA,NA,NA,""
"image-keyboard-response",80,131883,"0.0-3.23-0.23","s942g0ub4j3kxvm",594,"136.csv","","935.5999999046326","resources/trios/L1T2A1.jpg","38","restless",0.2,0.7,0.5,0.713753844221805,"false"
"image-keyboard-response",81,132293,"0.0-3.23-1.23","s942g0ub4j3kxvm",594,"136.csv","","null","resources/maskTrios/BT2B.jpg","null","",NA,NA,NA,NA,""
"image-keyboard-response",82,133515,"0.0-3.23-2.23","s942g0ub4j3kxvm",594,"136.csv","","null","resources/images/fishbone.png","null","",NA,NA,NA,NA,""
"image-keyboard-response",83,134997,"0.0-3.24-0.24","s942g0ub4j3kxvm",594,"136.csv","","1479.8000001907349","resources/trios/L1T1A2.jpg","38","restless",0.2,0.7,0.5,0.150264478484688,"true"
"image-keyboard-response",84,135402,"0.0-3.24-1.24","s942g0ub4j3kxvm",594,"136.csv","","null","resources/maskTrios/BT1B.jpg","null","",NA,NA,NA,NA,""
"image-keyboard-response",85,136617,"0.0-3.24-2.24","s942g0ub4j3kxvm",594,"136.csv","","null","resources/images/coin2.png","null","",NA,NA,NA,NA,""
"image-keyboard-response",86,137199,"0.0-3.25-0.25","s942g0ub4j3kxvm",594,"136.csv","","579.5","resources/trios/L1T1A2.jpg","37","restless",0.2,0.7,0.5,0.434935928336822,"false"
"image-keyboard-response",87,137605,"0.0-3.25-1.25","s942g0ub4j3kxvm",594,"136.csv","","null","resources/maskTrios/L1BB.jpg","null","",NA,NA,NA,NA,""
"image-keyboard-response",88,138821,"0.0-3.25-2.25","s942g0ub4j3kxvm",594,"136.csv","","null","resources/images/fishbone.png","null","",NA,NA,NA,NA,""
"image-keyboard-response",89,139083,"0.0-3.26-0.26","s942g0ub4j3kxvm",594,"136.csv","","260.69999980926514","resources/trios/L4T1A2.jpg","38","restless",0.2,0.7,0.5,0.780967886135402,"false"
"image-keyboard-response",90,139492,"0.0-3.26-1.26","s942g0ub4j3kxvm",594,"136.csv","","null","resources/maskTrios/BT1B.jpg","null","",NA,NA,NA,NA,""
"image-keyboard-response",91,140696,"0.0-3.26-2.26","s942g0ub4j3kxvm",594,"136.csv","","null","resources/images/fishbone.png","null","",NA,NA,NA,NA,""
"image-keyboard-response",92,141013,"0.0-3.27-0.27","s942g0ub4j3kxvm",594,"136.csv","","314.69999980926514","resources/trios/L4T1A2.jpg","38","restless",0.2,0.6,0.5,0.0627397368164835,"true"
"image-keyboard-response",93,141415,"0.0-3.27-1.27","s942g0ub4j3kxvm",594,"136.csv","","null","resources/maskTrios/BT1B.jpg","null","",NA,NA,NA,NA,""
"image-keyboard-response",94,142618,"0.0-3.27-2.27","s942g0ub4j3kxvm",594,"136.csv","","null","resources/images/coin2.png","null","",NA,NA,NA,NA,""
"image-keyboard-response",95,143343,"0.0-3.28-0.28","s942g0ub4j3kxvm",594,"136.csv","","723.3000001907349","resources/trios/L4T2A2.jpg","38","restless",0.2,0.6,0.5,0.872152362276593,"false"
"image-keyboard-response",96,143761,"0.0-3.28-1.28","s942g0ub4j3kxvm",594,"136.csv","","null","resources/maskTrios/BT2B.jpg","null","",NA,NA,NA,NA,""
"image-keyboard-response",97,144967,"0.0-3.28-2.28","s942g0ub4j3kxvm",594,"136.csv","","null","resources/images/fishbone.png","null","",NA,NA,NA,NA,""
"image-keyboard-response",98,145566,"0.0-3.29-0.29","s942g0ub4j3kxvm",594,"136.csv","","596.9000000953674","resources/trios/L1T2A2.jpg","38","restless",0.2,0.6,0.5,0.80875552871266,"false"
"image-keyboard-response",99,145969,"0.0-3.29-1.29","s942g0ub4j3kxvm",594,"136.csv","","null","resources/maskTrios/BT2B.jpg","null","",NA,NA,NA,NA,""
"image-keyboard-response",100,147175,"0.0-3.29-2.29","s942g0ub4j3kxvm",594,"136.csv","","null","resources/images/fishbone.png","null","",NA,NA,NA,NA,""
"image-keyboard-response",101,147505,"0.0-3.30-0.30","s942g0ub4j3kxvm",594,"136.csv","","327.90000009536743","resources/trios/L1T1A1.jpg","38","restless",0.2,0.6,0.5,0.0918522712792835,"true"
"image-keyboard-response",102,147923,"0.0-3.30-1.30","s942g0ub4j3kxvm",594,"136.csv","","null","resources/maskTrios/BT1B.jpg","null","",NA,NA,NA,NA,""
"image-keyboard-response",103,149128,"0.0-3.30-2.30","s942g0ub4j3kxvm",594,"136.csv","","null","resources/images/coin2.png","null","",NA,NA,NA,NA,""
"image-keyboard-response",104,149516,"0.0-3.31-0.31","s942g0ub4j3kxvm",594,"136.csv","","386","resources/trios/L1T2A1.jpg","37","restless",0.3,0.6,0.5,0.753551832279858,"false"
"image-keyboard-response",105,149923,"0.0-3.31-1.31","s942g0ub4j3kxvm",594,"136.csv","","null","resources/maskTrios/L1BB.jpg","null","",NA,NA,NA,NA,""
"image-keyboard-response",106,151127,"0.0-3.31-2.31","s942g0ub4j3kxvm",594,"136.csv","","null","resources/images/fishbone.png","null","",NA,NA,NA,NA,""
"image-keyboard-response",107,151514,"0.0-3.32-0.32","s942g0ub4j3kxvm",594,"136.csv","","384.5","resources/trios/L4T2A1.jpg","37","restless",0.3,0.6,0.5,0.888333986314089,"false"
"image-keyboard-response",108,151924,"0.0-3.32-1.32","s942g0ub4j3kxvm",594,"136.csv","","null","resources/maskTrios/L4BB.jpg","null","",NA,NA,NA,NA,""
"image-keyboard-response",109,153140,"0.0-3.32-2.32","s942g0ub4j3kxvm",594,"136.csv","","null","resources/images/fishbone.png","null","",NA,NA,NA,NA,""
"image-keyboard-response",110,153709,"0.0-3.33-0.33","s942g0ub4j3kxvm",594,"136.csv","","566.5","resources/trios/L1T1A2.jpg","38","restless",0.3,0.7,0.5,0.951473280548212,"false"
"image-keyboard-response",111,154126,"0.0-3.33-1.33","s942g0ub4j3kxvm",594,"136.csv","","null","resources/maskTrios/BT1B.jpg","null","",NA,NA,NA,NA,""
"image-keyboard-response",112,155334,"0.0-3.33-2.33","s942g0ub4j3kxvm",594,"136.csv","","null","resources/images/fishbone.png","null","",NA,NA,NA,NA,""
"image-keyboard-response",113,155913,"0.0-3.34-0.34","s942g0ub4j3kxvm",594,"136.csv","","577.5999999046326","resources/trios/L1T2A1.jpg","38","restless",0.3,0.7,0.5,0.0569635410803782,"true"
"image-keyboard-response",114,156329,"0.0-3.34-1.34","s942g0ub4j3kxvm",594,"136.csv","","null","resources/maskTrios/BT2B.jpg","null","",NA,NA,NA,NA,""
"image-keyboard-response",115,157535,"0.0-3.34-2.34","s942g0ub4j3kxvm",594,"136.csv","","null","resources/images/coin2.png","null","",NA,NA,NA,NA,""
"image-keyboard-response",116,158176,"0.0-3.35-0.35","s942g0ub4j3kxvm",594,"136.csv","","638.1000003814697","resources/trios/L1T1A1.jpg","38","restless",0.3,0.7,0.5,0.959247777896539,"false"
"image-keyboard-response",117,158588,"0.0-3.35-1.35","s942g0ub4j3kxvm",594,"136.csv","","null","resources/maskTrios/BT1B.jpg","null","",NA,NA,NA,NA,""
"image-keyboard-response",118,159805,"0.0-3.35-2.35","s942g0ub4j3kxvm",594,"136.csv","","null","resources/images/fishbone.png","null","",NA,NA,NA,NA,""
"image-keyboard-response",119,160188,"0.0-3.36-0.36","s942g0ub4j3kxvm",594,"136.csv","","380.59999990463257","resources/trios/L1T2A2.jpg","38","restless",0.3,0.6,0.5,0.0383102888306326,"true"
"image-keyboard-response",120,160600,"0.0-3.36-1.36","s942g0ub4j3kxvm",594,"136.csv","","null","resources/maskTrios/BT2B.jpg","null","",NA,NA,NA,NA,""
"image-keyboard-response",121,161811,"0.0-3.36-2.36","s942g0ub4j3kxvm",594,"136.csv","","null","resources/images/coin2.png","null","",NA,NA,NA,NA,""
"image-keyboard-response",122,162887,"0.0-3.37-0.37","s942g0ub4j3kxvm",594,"136.csv","","1073.4000000953674","resources/trios/L4T2A1.jpg","37","restless",0.3,0.6,0.5,0.70915628727213,"false"
"image-keyboard-response",123,163302,"0.0-3.37-1.37","s942g0ub4j3kxvm",594,"136.csv","","null","resources/maskTrios/L4BB.jpg","null","",NA,NA,NA,NA,""
"image-keyboard-response",124,164508,"0.0-3.37-2.37","s942g0ub4j3kxvm",594,"136.csv","","null","resources/images/fishbone.png","null","",NA,NA,NA,NA,""
"image-keyboard-response",125,165106,"0.0-3.38-0.38","s942g0ub4j3kxvm",594,"136.csv","","595.4000000953674","resources/trios/L4T2A2.jpg","38","restless",0.3,0.6,0.5,0.132551550880762,"true"
"image-keyboard-response",126,165514,"0.0-3.38-1.38","s942g0ub4j3kxvm",594,"136.csv","","null","resources/maskTrios/BT2B.jpg","null","",NA,NA,NA,NA,""
"image-keyboard-response",127,166731,"0.0-3.38-2.38","s942g0ub4j3kxvm",594,"136.csv","","null","resources/images/coin2.png","null","",NA,NA,NA,NA,""
"image-keyboard-response",128,167004,"0.0-3.39-0.39","s942g0ub4j3kxvm",594,"136.csv","","270.30000019073486","resources/trios/L4T1A2.jpg","38","restless",0.3,0.6,0.5,0.257515628697332,"true"
"image-keyboard-response",129,167413,"0.0-3.39-1.39","s942g0ub4j3kxvm",594,"136.csv","","null","resources/maskTrios/BT1B.jpg","null","",NA,NA,NA,NA,""
"image-keyboard-response",130,168619,"0.0-3.39-2.39","s942g0ub4j3kxvm",594,"136.csv","","null","resources/images/coin2.png","null","",NA,NA,NA,NA,""
"image-keyboard-response",131,169318,"0.0-3.40-0.40","s942g0ub4j3kxvm",594,"136.csv","","696.2000002861023","resources/trios/L4T2A2.jpg","38","restless",0.3,0.6,0.5,0.397762374583048,"true"
"image-keyboard-response",132,169732,"0.0-3.40-1.40","s942g0ub4j3kxvm",594,"136.csv","","null","resources/maskTrios/BT2B.jpg","null","",NA,NA,NA,NA,""
"image-keyboard-response",133,170948,"0.0-3.40-2.40","s942g0ub4j3kxvm",594,"136.csv","","null","resources/images/coin2.png","null","",NA,NA,NA,NA,""
"image-keyboard-response",134,171738,"0.0-3.41-0.41","s942g0ub4j3kxvm",594,"136.csv","","787.9000000953674","resources/trios/L1T2A1.jpg","37","restless",0.4,0.6,0.5,0.936217748567751,"false"
"image-keyboard-response",135,172153,"0.0-3.41-1.41","s942g0ub4j3kxvm",594,"136.csv","","null","resources/maskTrios/L1BB.jpg","null","",NA,NA,NA,NA,""
"image-keyboard-response",136,173362,"0.0-3.41-2.41","s942g0ub4j3kxvm",594,"136.csv","","null","resources/images/fishbone.png","null","",NA,NA,NA,NA,""
"image-keyboard-response",137,173861,"0.0-3.42-0.42","s942g0ub4j3kxvm",594,"136.csv","","497.8999996185303","resources/trios/L1T1A1.jpg","38","restless",0.4,0.6,0.5,0.820575281283474,"false"
"image-keyboard-response",138,174278,"0.0-3.42-1.42","s942g0ub4j3kxvm",594,"136.csv","","null","resources/maskTrios/BT1B.jpg","null","",NA,NA,NA,NA,""
"image-keyboard-response",139,175489,"0.0-3.42-2.42","s942g0ub4j3kxvm",594,"136.csv","","null","resources/images/fishbone.png","null","",NA,NA,NA,NA,""
"image-keyboard-response",140,175658,"0.0-3.43-0.43","s942g0ub4j3kxvm",594,"136.csv","","166.69999980926514","resources/trios/L1T1A2.jpg","38","restless",0.4,0.6,0.5,0.476552605345459,"true"
"image-keyboard-response",141,176073,"0.0-3.43-1.43","s942g0ub4j3kxvm",594,"136.csv","","null","resources/maskTrios/BT1B.jpg","null","",NA,NA,NA,NA,""
"image-keyboard-response",142,177277,"0.0-3.43-2.43","s942g0ub4j3kxvm",594,"136.csv","","null","resources/images/coin2.png","null","",NA,NA,NA,NA,""
"image-keyboard-response",143,177465,"0.0-3.44-0.44","s942g0ub4j3kxvm",594,"136.csv","","185.7999997138977","resources/trios/L1T1A1.jpg","38","restless",0.4,0.6,0.4,0.790654162280686,"false"
"image-keyboard-response",144,177874,"0.0-3.44-1.44","s942g0ub4j3kxvm",594,"136.csv","","null","resources/maskTrios/BT1B.jpg","null","",NA,NA,NA,NA,""
"image-keyboard-response",145,179086,"0.0-3.44-2.44","s942g0ub4j3kxvm",594,"136.csv","","null","resources/images/fishbone.png","null","",NA,NA,NA,NA,""
"image-keyboard-response",146,179162,"0.0-3.45-0.45","s942g0ub4j3kxvm",594,"136.csv","","74.59999990463257","resources/trios/L4T1A2.jpg","38","restless",0.5,0.6,0.4,0.353382986586384,"true"
"image-keyboard-response",147,179576,"0.0-3.45-1.45","s942g0ub4j3kxvm",594,"136.csv","","null","resources/maskTrios/BT1B.jpg","null","",NA,NA,NA,NA,""
"image-keyboard-response",148,180779,"0.0-3.45-2.45","s942g0ub4j3kxvm",594,"136.csv","","null","resources/images/coin2.png","null","",NA,NA,NA,NA,""
"image-keyboard-response",149,180904,"0.0-3.46-0.46","s942g0ub4j3kxvm",594,"136.csv","","123.89999961853027","resources/trios/L4T1A2.jpg","37","restless",0.5,0.6,0.4,0.0215445304244974,"true"
"image-keyboard-response",150,181311,"0.0-3.46-1.46","s942g0ub4j3kxvm",594,"136.csv","","null","resources/maskTrios/L4BB.jpg","null","",NA,NA,NA,NA,""
"image-keyboard-response",151,182528,"0.0-3.46-2.46","s942g0ub4j3kxvm",594,"136.csv","","null","resources/images/coin2.png","null","",NA,NA,NA,NA,""
"image-keyboard-response",152,182533,"0.0-3.47-0.47","s942g0ub4j3kxvm",594,"136.csv","","2.0999999046325684","resources/trios/L1T2A2.jpg","38","restless",0.6,0.6,0.4,0.624532770094318,"false"
"image-keyboard-response",153,182948,"0.0-3.47-1.47","s942g0ub4j3kxvm",594,"136.csv","","null","resources/maskTrios/BT2B.jpg","null","",NA,NA,NA,NA,""
"image-keyboard-response",154,184151,"0.0-3.47-2.47","s942g0ub4j3kxvm",594,"136.csv","","null","resources/images/fishbone.png","null","",NA,NA,NA,NA,""
"image-keyboard-response",155,184347,"0.0-3.48-0.48","s942g0ub4j3kxvm",594,"136.csv","","194.30000019073486","resources/trios/L1T1A1.jpg","38","restless",0.6,0.6,0.4,0.387145236067266,"true"
"image-keyboard-response",156,184765,"0.0-3.48-1.48","s942g0ub4j3kxvm",594,"136.csv","","null","resources/maskTrios/BT1B.jpg","null","",NA,NA,NA,NA,""
"image-keyboard-response",157,185978,"0.0-3.48-2.48","s942g0ub4j3kxvm",594,"136.csv","","null","resources/images/coin2.png","null","",NA,NA,NA,NA,""
"image-keyboard-response",158,186478,"0.0-3.49-0.49","s942g0ub4j3kxvm",594,"136.csv","","497.90000009536743","resources/trios/L4T2A1.jpg","38","restless",0.6,0.6,0.4,0.769479754764442,"false"
"image-keyboard-response",159,186886,"0.0-3.49-1.49","s942g0ub4j3kxvm",594,"136.csv","","null","resources/maskTrios/BT2B.jpg","null","",NA,NA,NA,NA,""
"image-keyboard-response",160,188094,"0.0-3.49-2.49","s942g0ub4j3kxvm",594,"136.csv","","null","resources/images/fishbone.png","null","",NA,NA,NA,NA,""
"image-keyboard-response",161,188526,"0.0-3.50-0.50","s942g0ub4j3kxvm",594,"136.csv","","430.19999980926514","resources/trios/L4T2A2.jpg","38","restless",0.6,0.6,0.4,0.731485841097317,"false"
"image-keyboard-response",162,188942,"0.0-3.50-1.50","s942g0ub4j3kxvm",594,"136.csv","","null","resources/maskTrios/BT2B.jpg","null","",NA,NA,NA,NA,""
"image-keyboard-response",163,190149,"0.0-3.50-2.50","s942g0ub4j3kxvm",594,"136.csv","","null","resources/images/fishbone.png","null","",NA,NA,NA,NA,""
"image-keyboard-response",164,191600,"0.0-3.51-0.51","s942g0ub4j3kxvm",594,"136.csv","","1449.1999998092651","resources/trios/L1T2A2.jpg","38","restless",0.6,0.6,0.4,0.804789599556592,"false"
"image-keyboard-response",165,192006,"0.0-3.51-1.51","s942g0ub4j3kxvm",594,"136.csv","","null","resources/maskTrios/BT2B.jpg","null","",NA,NA,NA,NA,""
"image-keyboard-response",166,193219,"0.0-3.51-2.51","s942g0ub4j3kxvm",594,"136.csv","","null","resources/images/fishbone.png","null","",NA,NA,NA,NA,""
"image-keyboard-response",167,194076,"0.0-3.52-0.52","s942g0ub4j3kxvm",594,"136.csv","","864.1999998092651","resources/trios/L1T1A2.jpg","37","restless",0.6,0.6,0.4,0.26593868967694,"true"
"image-keyboard-response",168,194490,"0.0-3.52-1.52","s942g0ub4j3kxvm",594,"136.csv","","null","resources/maskTrios/L1BB.jpg","null","",NA,NA,NA,NA,""
"image-keyboard-response",169,195696,"0.0-3.52-2.52","s942g0ub4j3kxvm",594,"136.csv","","null","resources/images/coin2.png","null","",NA,NA,NA,NA,""
"image-keyboard-response",170,195985,"0.0-3.53-0.53","s942g0ub4j3kxvm",594,"136.csv","","286.5","resources/trios/L4T1A1.jpg","38","restless",0.6,0.6,0.3,0.548935673842839,"true"
"image-keyboard-response",171,196397,"0.0-3.53-1.53","s942g0ub4j3kxvm",594,"136.csv","","null","resources/maskTrios/BT1B.jpg","null","",NA,NA,NA,NA,""
"image-keyboard-response",172,197609,"0.0-3.53-2.53","s942g0ub4j3kxvm",594,"136.csv","","null","resources/images/coin2.png","null","",NA,NA,NA,NA,""
"image-keyboard-response",173,199375,"0.0-3.54-0.54","s942g0ub4j3kxvm",594,"136.csv","","1764.2000002861023","resources/trios/L1T2A1.jpg","38","restless",0.6,0.6,0.3,0.477939583630942,"true"
"image-keyboard-response",174,199791,"0.0-3.54-1.54","s942g0ub4j3kxvm",594,"136.csv","","null","resources/maskTrios/BT2B.jpg","null","",NA,NA,NA,NA,""
"image-keyboard-response",175,200998,"0.0-3.54-2.54","s942g0ub4j3kxvm",594,"136.csv","","null","resources/images/coin2.png","null","",NA,NA,NA,NA,""
"image-keyboard-response",176,201331,"0.0-3.55-0.55","s942g0ub4j3kxvm",594,"136.csv","","332.2000002861023","resources/trios/L4T1A1.jpg","38","restless",0.6,0.6,0.3,0.936932377555379,"false"
"image-keyboard-response",177,201747,"0.0-3.55-1.55","s942g0ub4j3kxvm",594,"136.csv","","null","resources/maskTrios/BT1B.jpg","null","",NA,NA,NA,NA,""
"image-keyboard-response",178,202961,"0.0-3.55-2.55","s942g0ub4j3kxvm",594,"136.csv","","null","resources/images/fishbone.png","null","",NA,NA,NA,NA,""
"image-keyboard-response",179,203236,"0.0-3.56-0.56","s942g0ub4j3kxvm",594,"136.csv","","273.5","resources/trios/L4T2A1.jpg","37","restless",0.6,0.6,0.3,0.28483308099807,"true"
"image-keyboard-response",180,203651,"0.0-3.56-1.56","s942g0ub4j3kxvm",594,"136.csv","","null","resources/maskTrios/L4BB.jpg","null","",NA,NA,NA,NA,""
"image-keyboard-response",181,204854,"0.0-3.56-2.56","s942g0ub4j3kxvm",594,"136.csv","","null","resources/images/coin2.png","null","",NA,NA,NA,NA,""
"image-keyboard-response",182,207076,"0.0-3.57-0.57","s942g0ub4j3kxvm",594,"136.csv","","2219.699999809265","resources/trios/L4T2A2.jpg","39","restless",0.6,0.6,0.3,0.120223257023507,"true"
"image-keyboard-response",183,207481,"0.0-3.57-1.57","s942g0ub4j3kxvm",594,"136.csv","","null","resources/maskTrios/BBA2.jpg","null","",NA,NA,NA,NA,""
"image-keyboard-response",184,208688,"0.0-3.57-2.57","s942g0ub4j3kxvm",594,"136.csv","","null","resources/images/coin2.png","null","",NA,NA,NA,NA,""
"image-keyboard-response",185,211119,"0.0-3.58-0.58","s942g0ub4j3kxvm",594,"136.csv","","2429.5999999046326","resources/trios/L1T2A1.jpg","38","restless",0.6,0.6,0.3,0.519748887762375,"true"
"image-keyboard-response",186,211524,"0.0-3.58-1.58","s942g0ub4j3kxvm",594,"136.csv","","null","resources/maskTrios/BT2B.jpg","null","",NA,NA,NA,NA,""
"image-keyboard-response",187,212735,"0.0-3.58-2.58","s942g0ub4j3kxvm",594,"136.csv","","null","resources/images/coin2.png","null","",NA,NA,NA,NA,""
"image-keyboard-response",188,213124,"0.0-3.59-0.59","s942g0ub4j3kxvm",594,"136.csv","","387.2999997138977","resources/trios/L4T2A2.jpg","37","restless",0.6,0.6,0.3,0.84464393160675,"false"
"image-keyboard-response",189,213537,"0.0-3.59-1.59","s942g0ub4j3kxvm",594,"136.csv","","null","resources/maskTrios/L4BB.jpg","null","",NA,NA,NA,NA,""
"image-keyboard-response",190,214746,"0.0-3.59-2.59","s942g0ub4j3kxvm",594,"136.csv","","null","resources/images/fishbone.png","null","",NA,NA,NA,NA,""
"image-keyboard-response",191,215337,"0.0-3.60-0.60","s942g0ub4j3kxvm",594,"136.csv","","589.8000001907349","resources/trios/L4T2A2.jpg","39","restless",0.6,0.6,0.3,0.663478243092568,"false"
"image-keyboard-response",192,215752,"0.0-3.60-1.60","s942g0ub4j3kxvm",594,"136.csv","","null","resources/maskTrios/BBA2.jpg","null","",NA,NA,NA,NA,""
"image-keyboard-response",193,216965,"0.0-3.60-2.60","s942g0ub4j3kxvm",594,"136.csv","","null","resources/images/fishbone.png","null","",NA,NA,NA,NA,""
"image-keyboard-response",194,217958,"0.0-3.61-0.61","s942g0ub4j3kxvm",594,"136.csv","","990.4000000953674","resources/trios/L4T1A1.jpg","39","restless",0.6,0.6,0.3,0.290199280011317,"true"
"image-keyboard-response",195,218367,"0.0-3.61-1.61","s942g0ub4j3kxvm",594,"136.csv","","null","resources/maskTrios/BBA1.jpg","null","",NA,NA,NA,NA,""
"image-keyboard-response",196,219582,"0.0-3.61-2.61","s942g0ub4j3kxvm",594,"136.csv","","null","resources/images/coin2.png","null","",NA,NA,NA,NA,""
"image-keyboard-response",197,219867,"0.0-3.62-0.62","s942g0ub4j3kxvm",594,"136.csv","","283.19999980926514","resources/trios/L4T2A1.jpg","38","restless",0.6,0.6,0.3,0.590179491360791,"true"
"image-keyboard-response",198,220282,"0.0-3.62-1.62","s942g0ub4j3kxvm",594,"136.csv","","null","resources/maskTrios/BT2B.jpg","null","",NA,NA,NA,NA,""
"image-keyboard-response",199,221499,"0.0-3.62-2.62","s942g0ub4j3kxvm",594,"136.csv","","null","resources/images/coin2.png","null","",NA,NA,NA,NA,""
"image-keyboard-response",200,222663,"0.0-3.63-0.63","s942g0ub4j3kxvm",594,"136.csv","","1161.2000002861023","resources/trios/L4T2A1.jpg","37","restless",0.6,0.6,0.3,0.869378797513623,"false"
"image-keyboard-response",201,223073,"0.0-3.63-1.63","s942g0ub4j3kxvm",594,"136.csv","","null","resources/maskTrios/L4BB.jpg","null","",NA,NA,NA,NA,""
"image-keyboard-response",202,224276,"0.0-3.63-2.63","s942g0ub4j3kxvm",594,"136.csv","","null","resources/images/fishbone.png","null","",NA,NA,NA,NA,""
"image-keyboard-response",203,225415,"0.0-3.64-0.64","s942g0ub4j3kxvm",594,"136.csv","","1137.9000000953674","resources/trios/L4T2A2.jpg","39","restless",0.6,0.6,0.3,0.263380413306215,"true"
"image-keyboard-response",204,225819,"0.0-3.64-1.64","s942g0ub4j3kxvm",594,"136.csv","","null","resources/maskTrios/BBA2.jpg","null","",NA,NA,NA,NA,""
"image-keyboard-response",205,227028,"0.0-3.64-2.64","s942g0ub4j3kxvm",594,"136.csv","","null","resources/images/coin2.png","null","",NA,NA,NA,NA,""
"image-keyboard-response",206,227622,"0.0-3.65-0.65","s942g0ub4j3kxvm",594,"136.csv","","591.3999996185303","resources/trios/L1T1A2.jpg","38","restless",0.7,0.6,0.3,0.373542233985247,"true"
"image-keyboard-response",207,228026,"0.0-3.65-1.65","s942g0ub4j3kxvm",594,"136.csv","","null","resources/maskTrios/BT1B.jpg","null","",NA,NA,NA,NA,""
"image-keyboard-response",208,229240,"0.0-3.65-2.65","s942g0ub4j3kxvm",594,"136.csv","","null","resources/images/coin2.png","null","",NA,NA,NA,NA,""
"image-keyboard-response",209,229551,"0.0-3.66-0.66","s942g0ub4j3kxvm",594,"136.csv","","308.3999996185303","resources/trios/L1T2A2.jpg","39","restless",0.7,0.6,0.3,0.12189141975859,"true"
"image-keyboard-response",210,229967,"0.0-3.66-1.66","s942g0ub4j3kxvm",594,"136.csv","","null","resources/maskTrios/BBA2.jpg","null","",NA,NA,NA,NA,""
"image-keyboard-response",211,231183,"0.0-3.66-2.66","s942g0ub4j3kxvm",594,"136.csv","","null","resources/images/coin2.png","null","",NA,NA,NA,NA,""
"image-keyboard-response",212,231418,"0.0-3.67-0.67","s942g0ub4j3kxvm",594,"136.csv","","233","resources/trios/L1T2A1.jpg","37","restless",0.7,0.6,0.3,0.456005732572501,"true"
"image-keyboard-response",213,231836,"0.0-3.67-1.67","s942g0ub4j3kxvm",594,"136.csv","","null","resources/maskTrios/L1BB.jpg","null","",NA,NA,NA,NA,""
"image-keyboard-response",214,233048,"0.0-3.67-2.67","s942g0ub4j3kxvm",594,"136.csv","","null","resources/images/coin2.png","null","",NA,NA,NA,NA,""
"image-keyboard-response",215,233261,"0.0-3.68-0.68","s942g0ub4j3kxvm",594,"136.csv","","211.80000019073486","resources/trios/L1T1A2.jpg","38","restless",0.7,0.6,0.3,0.121173516389675,"true"
"image-keyboard-response",216,233667,"0.0-3.68-1.68","s942g0ub4j3kxvm",594,"136.csv","","null","resources/maskTrios/BT1B.jpg","null","",NA,NA,NA,NA,""
"image-keyboard-response",217,234884,"0.0-3.68-2.68","s942g0ub4j3kxvm",594,"136.csv","","null","resources/images/coin2.png","null","",NA,NA,NA,NA,""
"image-keyboard-response",218,235092,"0.0-3.69-0.69","s942g0ub4j3kxvm",594,"136.csv","","205.69999980926514","resources/trios/L4T2A1.jpg","39","restless",0.7,0.6,0.3,0.4947284251458,"false"
"image-keyboard-response",219,235502,"0.0-3.69-1.69","s942g0ub4j3kxvm",594,"136.csv","","null","resources/maskTrios/BBA1.jpg","null","",NA,NA,NA,NA,""
"image-keyboard-response",220,236709,"0.0-3.69-2.69","s942g0ub4j3kxvm",594,"136.csv","","null","resources/images/fishbone.png","null","",NA,NA,NA,NA,""
"image-keyboard-response",221,242702,"0.0-3.70-0.70","s942g0ub4j3kxvm",594,"136.csv","","5991","resources/trios/L4T1A1.jpg","39","restless",0.7,0.6,0.3,0.0320852415086199,"true"
"image-keyboard-response",222,243110,"0.0-3.70-1.70","s942g0ub4j3kxvm",594,"136.csv","","null","resources/maskTrios/BBA1.jpg","null","",NA,NA,NA,NA,""
"image-keyboard-response",223,244316,"0.0-3.70-2.70","s942g0ub4j3kxvm",594,"136.csv","","null","resources/images/coin2.png","null","",NA,NA,NA,NA,""
"image-keyboard-response",224,244707,"0.0-3.71-0.71","s942g0ub4j3kxvm",594,"136.csv","","390.40000009536743","resources/trios/L1T1A1.jpg","38","restless",0.8,0.5,0.3,0.749344085970618,"false"
"image-keyboard-response",225,245111,"0.0-3.71-1.71","s942g0ub4j3kxvm",594,"136.csv","","null","resources/maskTrios/BT1B.jpg","null","",NA,NA,NA,NA,""
"image-keyboard-response",226,246326,"0.0-3.71-2.71","s942g0ub4j3kxvm",594,"136.csv","","null","resources/images/fishbone.png","null","",NA,NA,NA,NA,""
"image-keyboard-response",227,248278,"0.0-3.72-0.72","s942g0ub4j3kxvm",594,"136.csv","","1949.4000000953674","resources/trios/L1T1A2.jpg","39","restless",0.8,0.5,0.3,0.322415311197324,"false"
"image-keyboard-response",228,248696,"0.0-3.72-1.72","s942g0ub4j3kxvm",594,"136.csv","","null","resources/maskTrios/BBA2.jpg","null","",NA,NA,NA,NA,""
"image-keyboard-response",229,249900,"0.0-3.72-2.72","s942g0ub4j3kxvm",594,"136.csv","","null","resources/images/fishbone.png","null","",NA,NA,NA,NA,""
"image-keyboard-response",230,250347,"0.0-3.73-0.73","s942g0ub4j3kxvm",594,"136.csv","","444.90000009536743","resources/trios/L4T2A1.jpg","38","restless",0.8,0.5,0.3,0.389015861462272,"true"
"image-keyboard-response",231,250752,"0.0-3.73-1.73","s942g0ub4j3kxvm",594,"136.csv","","null","resources/maskTrios/BT2B.jpg","null","",NA,NA,NA,NA,""
"image-keyboard-response",232,251965,"0.0-3.73-2.73","s942g0ub4j3kxvm",594,"136.csv","","null","resources/images/coin2.png","null","",NA,NA,NA,NA,""
"image-keyboard-response",233,252342,"0.0-3.74-0.74","s942g0ub4j3kxvm",594,"136.csv","","375.09999990463257","resources/trios/L1T2A2.jpg","37","restless",0.8,0.5,0.3,0.401937014579182,"true"
"image-keyboard-response",234,252753,"0.0-3.74-1.74","s942g0ub4j3kxvm",594,"136.csv","","null","resources/maskTrios/L1BB.jpg","null","",NA,NA,NA,NA,""
"image-keyboard-response",235,253964,"0.0-3.74-2.74","s942g0ub4j3kxvm",594,"136.csv","","null","resources/images/coin2.png","null","",NA,NA,NA,NA,""
"image-keyboard-response",236,254185,"0.0-3.75-0.75","s942g0ub4j3kxvm",594,"136.csv","","217.40000009536743","resources/trios/L4T2A2.jpg","39","restless",0.8,0.5,0.3,0.0932226067083672,"true"
"image-keyboard-response",237,254591,"0.0-3.75-1.75","s942g0ub4j3kxvm",594,"136.csv","","null","resources/maskTrios/BBA2.jpg","null","",NA,NA,NA,NA,""
"image-keyboard-response",238,255803,"0.0-3.75-2.75","s942g0ub4j3kxvm",594,"136.csv","","null","resources/images/coin2.png","null","",NA,NA,NA,NA,""
"image-keyboard-response",239,256060,"0.0-3.76-0.76","s942g0ub4j3kxvm",594,"136.csv","","255.2000002861023","resources/trios/L4T1A2.jpg","38","restless",0.8,0.5,0.3,0.100128509076298,"true"
"image-keyboard-response",240,256475,"0.0-3.76-1.76","s942g0ub4j3kxvm",594,"136.csv","","null","resources/maskTrios/BT1B.jpg","null","",NA,NA,NA,NA,""
"image-keyboard-response",241,257677,"0.0-3.76-2.76","s942g0ub4j3kxvm",594,"136.csv","","null","resources/images/coin2.png","null","",NA,NA,NA,NA,""
"image-keyboard-response",242,257794,"0.0-3.77-0.77","s942g0ub4j3kxvm",594,"136.csv","","115.40000009536743","resources/trios/L1T2A1.jpg","39","restless",0.8,0.5,0.3,0.917772979225731,"false"
"image-keyboard-response",243,258209,"0.0-3.77-1.77","s942g0ub4j3kxvm",594,"136.csv","","null","resources/maskTrios/BBA1.jpg","null","",NA,NA,NA,NA,""
"image-keyboard-response",244,259414,"0.0-3.77-2.77","s942g0ub4j3kxvm",594,"136.csv","","null","resources/images/fishbone.png","null","",NA,NA,NA,NA,""
"image-keyboard-response",245,259810,"0.0-3.78-0.78","s942g0ub4j3kxvm",594,"136.csv","","394.69999980926514","resources/trios/L4T1A2.jpg","37","restless",0.8,0.5,0.3,0.392694148477646,"true"
"image-keyboard-response",246,260219,"0.0-3.78-1.78","s942g0ub4j3kxvm",594,"136.csv","","null","resources/maskTrios/L4BB.jpg","null","",NA,NA,NA,NA,""
"image-keyboard-response",247,261432,"0.0-3.78-2.78","s942g0ub4j3kxvm",594,"136.csv","","null","resources/images/coin2.png","null","",NA,NA,NA,NA,""
"image-keyboard-response",248,261696,"0.0-3.79-0.79","s942g0ub4j3kxvm",594,"136.csv","","262.8999996185303","resources/trios/L4T2A1.jpg","38","restless",0.7,0.5,0.3,0.580206186786193,"false"
"image-keyboard-response",249,262107,"0.0-3.79-1.79","s942g0ub4j3kxvm",594,"136.csv","","null","resources/maskTrios/BT2B.jpg","null","",NA,NA,NA,NA,""
"image-keyboard-response",250,263314,"0.0-3.79-2.79","s942g0ub4j3kxvm",594,"136.csv","","null","resources/images/fishbone.png","null","",NA,NA,NA,NA,""
"image-keyboard-response",251,263545,"0.0-3.80-0.80","s942g0ub4j3kxvm",594,"136.csv","","229.2999997138977","resources/trios/L4T1A2.jpg","38","restless",0.7,0.5,0.4,0.272517571251383,"true"
"image-keyboard-response",252,263960,"0.0-3.80-1.80","s942g0ub4j3kxvm",594,"136.csv","","null","resources/maskTrios/BT1B.jpg","null","",NA,NA,NA,NA,""
"image-keyboard-response",253,265166,"0.0-3.80-2.80","s942g0ub4j3kxvm",594,"136.csv","","null","resources/images/coin2.png","null","",NA,NA,NA,NA,""
"image-keyboard-response",254,265409,"0.0-3.81-0.81","s942g0ub4j3kxvm",594,"136.csv","","240.90000009536743","resources/trios/L1T1A2.jpg","37","restless",0.7,0.5,0.4,0.191620248556066,"true"
"image-keyboard-response",255,265824,"0.0-3.81-1.81","s942g0ub4j3kxvm",594,"136.csv","","null","resources/maskTrios/L1BB.jpg","null","",NA,NA,NA,NA,""
"image-keyboard-response",256,267031,"0.0-3.81-2.81","s942g0ub4j3kxvm",594,"136.csv","","null","resources/images/coin2.png","null","",NA,NA,NA,NA,""
"image-keyboard-response",257,267270,"0.0-3.82-0.82","s942g0ub4j3kxvm",594,"136.csv","","236.80000019073486","resources/trios/L4T1A1.jpg","39","restless",0.7,0.5,0.4,0.972410461988989,"false"
"image-keyboard-response",258,267685,"0.0-3.82-1.82","s942g0ub4j3kxvm",594,"136.csv","","null","resources/maskTrios/BBA1.jpg","null","",NA,NA,NA,NA,""
"image-keyboard-response",259,268898,"0.0-3.82-2.82","s942g0ub4j3kxvm",594,"136.csv","","null","resources/images/fishbone.png","null","",NA,NA,NA,NA,""
"image-keyboard-response",260,269136,"0.0-3.83-0.83","s942g0ub4j3kxvm",594,"136.csv","","236.40000009536743","resources/trios/L1T2A2.jpg","38","restless",0.7,0.5,0.4,0.969351541074941,"false"
"image-keyboard-response",261,269550,"0.0-3.83-1.83","s942g0ub4j3kxvm",594,"136.csv","","null","resources/maskTrios/BT2B.jpg","null","",NA,NA,NA,NA,""
"image-keyboard-response",262,270764,"0.0-3.83-2.83","s942g0ub4j3kxvm",594,"136.csv","","null","resources/images/fishbone.png","null","",NA,NA,NA,NA,""
"image-keyboard-response",263,270918,"0.0-3.84-0.84","s942g0ub4j3kxvm",594,"136.csv","","151.69999980926514","resources/trios/L4T2A1.jpg","37","restless",0.7,0.5,0.4,0.232238251261988,"true"
"image-keyboard-response",264,271328,"0.0-3.84-1.84","s942g0ub4j3kxvm",594,"136.csv","","null","resources/maskTrios/L4BB.jpg","null","",NA,NA,NA,NA,""
"image-keyboard-response",265,272531,"0.0-3.84-2.84","s942g0ub4j3kxvm",594,"136.csv","","null","resources/images/coin2.png","null","",NA,NA,NA,NA,""
"image-keyboard-response",266,272748,"0.0-3.85-0.85","s942g0ub4j3kxvm",594,"136.csv","","214.30000019073486","resources/trios/L4T1A1.jpg","39","restless",0.7,0.5,0.4,0.372748078579255,"true"
"image-keyboard-response",267,273158,"0.0-3.85-1.85","s942g0ub4j3kxvm",594,"136.csv","","null","resources/maskTrios/BBA1.jpg","null","",NA,NA,NA,NA,""
"image-keyboard-response",268,274367,"0.0-3.85-2.85","s942g0ub4j3kxvm",594,"136.csv","","null","resources/images/coin2.png","null","",NA,NA,NA,NA,""
"image-keyboard-response",269,274625,"0.0-3.86-0.86","s942g0ub4j3kxvm",594,"136.csv","","255","resources/trios/L1T1A2.jpg","37","restless",0.7,0.6,0.4,0.271207364118703,"true"
"image-keyboard-response",270,275039,"0.0-3.86-1.86","s942g0ub4j3kxvm",594,"136.csv","","null","resources/maskTrios/L1BB.jpg","null","",NA,NA,NA,NA,""
"image-keyboard-response",271,276250,"0.0-3.86-2.86","s942g0ub4j3kxvm",594,"136.csv","","null","resources/images/coin2.png","null","",NA,NA,NA,NA,""
"image-keyboard-response",272,276484,"0.0-3.87-0.87","s942g0ub4j3kxvm",594,"136.csv","","231.59999990463257","resources/trios/L1T1A1.jpg","38","restless",0.7,0.6,0.5,0.136346225804617,"true"
"image-keyboard-response",273,276888,"0.0-3.87-1.87","s942g0ub4j3kxvm",594,"136.csv","","null","resources/maskTrios/BT1B.jpg","null","",NA,NA,NA,NA,""
"image-keyboard-response",274,278097,"0.0-3.87-2.87","s942g0ub4j3kxvm",594,"136.csv","","null","resources/images/coin2.png","null","",NA,NA,NA,NA,""
"image-keyboard-response",275,278319,"0.0-3.88-0.88","s942g0ub4j3kxvm",594,"136.csv","","219.69999980926514","resources/trios/L1T1A1.jpg","37","restless",0.7,0.6,0.6,0.573837143617409,"true"
"image-keyboard-response",276,278729,"0.0-3.88-1.88","s942g0ub4j3kxvm",594,"136.csv","","null","resources/maskTrios/L1BB.jpg","null","",NA,NA,NA,NA,""
"image-keyboard-response",277,279947,"0.0-3.88-2.88","s942g0ub4j3kxvm",594,"136.csv","","null","resources/images/coin2.png","null","",NA,NA,NA,NA,""
"image-keyboard-response",278,280192,"0.0-3.89-0.89","s942g0ub4j3kxvm",594,"136.csv","","242.7000002861023","resources/trios/L1T2A2.jpg","39","restless",0.7,0.6,0.7,0.219517546252942,"true"
"image-keyboard-response",279,280598,"0.0-3.89-1.89","s942g0ub4j3kxvm",594,"136.csv","","null","resources/maskTrios/BBA2.jpg","null","",NA,NA,NA,NA,""
"image-keyboard-response",280,281805,"0.0-3.89-2.89","s942g0ub4j3kxvm",594,"136.csv","","null","resources/images/coin2.png","null","",NA,NA,NA,NA,""
"image-keyboard-response",281,282012,"0.0-3.90-0.90","s942g0ub4j3kxvm",594,"136.csv","","204.7999997138977","resources/trios/L4T1A1.jpg","37","restless",0.7,0.6,0.7,0.0628458007076482,"true"
"image-keyboard-response",282,282425,"0.0-3.90-1.90","s942g0ub4j3kxvm",594,"136.csv","","null","resources/maskTrios/L4BB.jpg","null","",NA,NA,NA,NA,""
"image-keyboard-response",283,283631,"0.0-3.90-2.90","s942g0ub4j3kxvm",594,"136.csv","","null","resources/images/coin2.png","null","",NA,NA,NA,NA,""
"image-keyboard-response",284,283812,"0.0-3.91-0.91","s942g0ub4j3kxvm",594,"136.csv","","179.30000019073486","resources/trios/L1T2A1.jpg","38","restless",0.7,0.6,0.7,0.399252931026339,"true"
"image-keyboard-response",285,284230,"0.0-3.91-1.91","s942g0ub4j3kxvm",594,"136.csv","","null","resources/maskTrios/BT2B.jpg","null","",NA,NA,NA,NA,""
"image-keyboard-response",286,285444,"0.0-3.91-2.91","s942g0ub4j3kxvm",594,"136.csv","","null","resources/images/coin2.png","null","",NA,NA,NA,NA,""
"image-keyboard-response",287,285591,"0.0-3.92-0.92","s942g0ub4j3kxvm",594,"136.csv","","144.7999997138977","resources/trios/L4T2A1.jpg","37","restless",0.7,0.6,0.7,0.575676838397742,"true"
"image-keyboard-response",288,285999,"0.0-3.92-1.92","s942g0ub4j3kxvm",594,"136.csv","","null","resources/maskTrios/L4BB.jpg","null","",NA,NA,NA,NA,""
"image-keyboard-response",289,287205,"0.0-3.92-2.92","s942g0ub4j3kxvm",594,"136.csv","","null","resources/images/coin2.png","null","",NA,NA,NA,NA,""
"image-keyboard-response",290,287416,"0.0-3.93-0.93","s942g0ub4j3kxvm",594,"136.csv","","208.5","resources/trios/L4T1A1.jpg","38","restless",0.7,0.6,0.7,0.992786957891583,"false"
"image-keyboard-response",291,287825,"0.0-3.93-1.93","s942g0ub4j3kxvm",594,"136.csv","","null","resources/maskTrios/BT1B.jpg","null","",NA,NA,NA,NA,""
"image-keyboard-response",292,289031,"0.0-3.93-2.93","s942g0ub4j3kxvm",594,"136.csv","","null","resources/images/fishbone.png","null","",NA,NA,NA,NA,""
"image-keyboard-response",293,289275,"0.0-3.94-0.94","s942g0ub4j3kxvm",594,"136.csv","","241.69999980926514","resources/trios/L4T1A1.jpg","37","restless",0.7,0.6,0.7,0.931791053594601,"false"
"image-keyboard-response",294,289692,"0.0-3.94-1.94","s942g0ub4j3kxvm",594,"136.csv","","null","resources/maskTrios/L4BB.jpg","null","",NA,NA,NA,NA,""
"image-keyboard-response",295,290897,"0.0-3.94-2.94","s942g0ub4j3kxvm",594,"136.csv","","null","resources/images/fishbone.png","null","",NA,NA,NA,NA,""
"image-keyboard-response",296,291176,"0.0-3.95-0.95","s942g0ub4j3kxvm",594,"136.csv","","277","resources/trios/L4T2A1.jpg","39","restless",0.7,0.6,0.8,0.598660567145109,"true"
"image-keyboard-response",297,291582,"0.0-3.95-1.95","s942g0ub4j3kxvm",594,"136.csv","","null","resources/maskTrios/BBA1.jpg","null","",NA,NA,NA,NA,""
"image-keyboard-response",298,292800,"0.0-3.95-2.95","s942g0ub4j3kxvm",594,"136.csv","","null","resources/images/coin2.png","null","",NA,NA,NA,NA,""
"image-keyboard-response",299,293035,"0.0-3.96-0.96","s942g0ub4j3kxvm",594,"136.csv","","234.5","resources/trios/L1T1A1.jpg","38","restless",0.7,0.6,0.8,0.561962887718551,"true"
"image-keyboard-response",300,293450,"0.0-3.96-1.96","s942g0ub4j3kxvm",594,"136.csv","","null","resources/maskTrios/BT1B.jpg","null","",NA,NA,NA,NA,""
"image-keyboard-response",301,294656,"0.0-3.96-2.96","s942g0ub4j3kxvm",594,"136.csv","","null","resources/images/coin2.png","null","",NA,NA,NA,NA,""
"image-keyboard-response",302,294896,"0.0-3.97-0.97","s942g0ub4j3kxvm",594,"136.csv","","238.40000009536743","resources/trios/L1T2A1.jpg","39","restless",0.6,0.6,0.8,0.651268128989973,"true"
"image-keyboard-response",303,295304,"0.0-3.97-1.97","s942g0ub4j3kxvm",594,"136.csv","","null","resources/maskTrios/BBA1.jpg","null","",NA,NA,NA,NA,""
"image-keyboard-response",304,296509,"0.0-3.97-2.97","s942g0ub4j3kxvm",594,"136.csv","","null","resources/images/coin2.png","null","",NA,NA,NA,NA,""
"image-keyboard-response",305,296726,"0.0-3.98-0.98","s942g0ub4j3kxvm",594,"136.csv","","214.5","resources/trios/L1T1A2.jpg","37","restless",0.6,0.6,0.8,0.0334905237311607,"true"
"image-keyboard-response",306,297131,"0.0-3.98-1.98","s942g0ub4j3kxvm",594,"136.csv","","null","resources/maskTrios/L1BB.jpg","null","",NA,NA,NA,NA,""
"image-keyboard-response",307,298344,"0.0-3.98-2.98","s942g0ub4j3kxvm",594,"136.csv","","null","resources/images/coin2.png","null","",NA,NA,NA,NA,""
"image-keyboard-response",308,298547,"0.0-3.99-0.99","s942g0ub4j3kxvm",594,"136.csv","","201","resources/trios/L4T1A1.jpg","38","restless",0.6,0.6,0.8,0.56151825021038,"true"
"image-keyboard-response",309,298962,"0.0-3.99-1.99","s942g0ub4j3kxvm",594,"136.csv","","null","resources/maskTrios/BT1B.jpg","null","",NA,NA,NA,NA,""
"image-keyboard-response",310,300179,"0.0-3.99-2.99","s942g0ub4j3kxvm",594,"136.csv","","null","resources/images/coin2.png","null","",NA,NA,NA,NA,""
"image-keyboard-response",311,300409,"0.0-3.100-0.100","s942g0ub4j3kxvm",594,"136.csv","","227.40000009536743","resources/trios/L4T1A2.jpg","39","restless",0.6,0.6,0.8,0.18990153063563,"true"
"image-keyboard-response",312,300813,"0.0-3.100-1.100","s942g0ub4j3kxvm",594,"136.csv","","null","resources/maskTrios/BBA2.jpg","null","",NA,NA,NA,NA,""
"image-keyboard-response",313,302015,"0.0-3.100-2.100","s942g0ub4j3kxvm",594,"136.csv","","null","resources/images/coin2.png","null","",NA,NA,NA,NA,""
"image-keyboard-response",314,302168,"0.0-3.101-0.101","s942g0ub4j3kxvm",594,"136.csv","","150.90000009536743","resources/trios/L4T1A1.jpg","38","restless",0.7,0.6,0.8,0.130129680696563,"true"
"image-keyboard-response",315,302579,"0.0-3.101-1.101","s942g0ub4j3kxvm",594,"136.csv","","null","resources/maskTrios/BT1B.jpg","null","",NA,NA,NA,NA,""
"image-keyboard-response",316,303788,"0.0-3.101-2.101","s942g0ub4j3kxvm",594,"136.csv","","null","resources/images/coin2.png","null","",NA,NA,NA,NA,""
"image-keyboard-response",317,304023,"0.0-3.102-0.102","s942g0ub4j3kxvm",594,"136.csv","","233.19999980926514","resources/trios/L4T1A2.jpg","39","restless",0.7,0.6,0.8,0.79476490154621,"true"
"image-keyboard-response",318,304438,"0.0-3.102-1.102","s942g0ub4j3kxvm",594,"136.csv","","null","resources/maskTrios/BBA2.jpg","null","",NA,NA,NA,NA,""
"image-keyboard-response",319,305648,"0.0-3.102-2.102","s942g0ub4j3kxvm",594,"136.csv","","null","resources/images/coin2.png","null","",NA,NA,NA,NA,""
"image-keyboard-response",320,305853,"0.0-3.103-0.103","s942g0ub4j3kxvm",594,"136.csv","","203.60000038146973","resources/trios/L1T2A2.jpg","37","restless",0.7,0.6,0.8,0.770098697566516,"false"
"image-keyboard-response",321,306265,"0.0-3.103-1.103","s942g0ub4j3kxvm",594,"136.csv","","null","resources/maskTrios/L1BB.jpg","null","",NA,NA,NA,NA,""
"image-keyboard-response",322,307471,"0.0-3.103-2.103","s942g0ub4j3kxvm",594,"136.csv","","null","resources/images/fishbone.png","null","",NA,NA,NA,NA,""
"image-keyboard-response",323,307579,"0.0-3.104-0.104","s942g0ub4j3kxvm",594,"136.csv","","105.5","resources/trios/L1T1A2.jpg","38","restless",0.7,0.6,0.8,0.148093417755037,"true"
"image-keyboard-response",324,307982,"0.0-3.104-1.104","s942g0ub4j3kxvm",594,"136.csv","","null","resources/maskTrios/BT1B.jpg","null","",NA,NA,NA,NA,""
"image-keyboard-response",325,309196,"0.0-3.104-2.104","s942g0ub4j3kxvm",594,"136.csv","","null","resources/images/coin2.png","null","",NA,NA,NA,NA,""
"image-keyboard-response",326,309231,"0.0-3.105-0.105","s942g0ub4j3kxvm",594,"136.csv","","32.40000009536743","resources/trios/L4T2A1.jpg","39","restless",0.7,0.6,0.9,0.84966805886735,"true"
"image-keyboard-response",327,309646,"0.0-3.105-1.105","s942g0ub4j3kxvm",594,"136.csv","","null","resources/maskTrios/BBA1.jpg","null","",NA,NA,NA,NA,""
"image-keyboard-response",328,310860,"0.0-3.105-2.105","s942g0ub4j3kxvm",594,"136.csv","","null","resources/images/coin2.png","null","",NA,NA,NA,NA,""
"image-keyboard-response",329,310943,"0.0-3.106-0.106","s942g0ub4j3kxvm",594,"136.csv","","80.90000009536743","resources/trios/L4T2A1.jpg","38","restless",0.7,0.6,0.9,0.682518579362675,"false"
"image-keyboard-response",330,311356,"0.0-3.106-1.106","s942g0ub4j3kxvm",594,"136.csv","","null","resources/maskTrios/BT2B.jpg","null","",NA,NA,NA,NA,""
"image-keyboard-response",331,312562,"0.0-3.106-2.106","s942g0ub4j3kxvm",594,"136.csv","","null","resources/images/fishbone.png","null","",NA,NA,NA,NA,""
"image-keyboard-response",332,312716,"0.0-3.107-0.107","s942g0ub4j3kxvm",594,"136.csv","","151.69999980926514","resources/trios/L4T1A1.jpg","37","restless",0.7,0.5,0.9,0.712672942991398,"false"
"image-keyboard-response",333,313129,"0.0-3.107-1.107","s942g0ub4j3kxvm",594,"136.csv","","null","resources/maskTrios/L4BB.jpg","null","",NA,NA,NA,NA,""
"image-keyboard-response",334,314343,"0.0-3.107-2.107","s942g0ub4j3kxvm",594,"136.csv","","null","resources/images/fishbone.png","null","",NA,NA,NA,NA,""
"image-keyboard-response",335,314519,"0.0-3.108-0.108","s942g0ub4j3kxvm",594,"136.csv","","174.2999997138977","resources/trios/L4T1A2.jpg","38","restless",0.7,0.5,0.9,0.937016432576408,"false"
"image-keyboard-response",336,314922,"0.0-3.108-1.108","s942g0ub4j3kxvm",594,"136.csv","","null","resources/maskTrios/BT1B.jpg","null","",NA,NA,NA,NA,""
"image-keyboard-response",337,316125,"0.0-3.108-2.108","s942g0ub4j3kxvm",594,"136.csv","","null","resources/images/fishbone.png","null","",NA,NA,NA,NA,""
"image-keyboard-response",338,316202,"0.0-3.109-0.109","s942g0ub4j3kxvm",594,"136.csv","","75.59999990463257","resources/trios/L1T2A2.jpg","38","restless",0.7,0.5,0.9,0.464221190845869,"true"
"image-keyboard-response",339,316606,"0.0-3.109-1.109","s942g0ub4j3kxvm",594,"136.csv","","null","resources/maskTrios/BT2B.jpg","null","",NA,NA,NA,NA,""
"image-keyboard-response",340,317811,"0.0-3.109-2.109","s942g0ub4j3kxvm",594,"136.csv","","null","resources/images/coin2.png","null","",NA,NA,NA,NA,""
"image-keyboard-response",341,318071,"0.0-3.110-0.110","s942g0ub4j3kxvm",594,"136.csv","","258.69999980926514","resources/trios/L1T2A2.jpg","38","restless",0.7,0.5,0.9,0.252193121403862,"true"
"image-keyboard-response",342,318480,"0.0-3.110-1.110","s942g0ub4j3kxvm",594,"136.csv","","null","resources/maskTrios/BT2B.jpg","null","",NA,NA,NA,NA,""
"image-keyboard-response",343,319696,"0.0-3.110-2.110","s942g0ub4j3kxvm",594,"136.csv","","null","resources/images/coin2.png","null","",NA,NA,NA,NA,""
"image-keyboard-response",344,319925,"0.0-3.111-0.111","s942g0ub4j3kxvm",594,"136.csv","","227","resources/trios/L1T1A1.jpg","39","restless",0.7,0.5,0.9,0.709595030395917,"true"
"image-keyboard-response",345,320331,"0.0-3.111-1.111","s942g0ub4j3kxvm",594,"136.csv","","null","resources/maskTrios/BBA1.jpg","null","",NA,NA,NA,NA,""
"image-keyboard-response",346,321534,"0.0-3.111-2.111","s942g0ub4j3kxvm",594,"136.csv","","null","resources/images/coin2.png","null","",NA,NA,NA,NA,""
"image-keyboard-response",347,321733,"0.0-3.112-0.112","s942g0ub4j3kxvm",594,"136.csv","","196.60000038146973","resources/trios/L1T2A1.jpg","37","restless",0.7,0.5,0.9,0.0588650161825772,"true"
"image-keyboard-response",348,322145,"0.0-3.112-1.112","s942g0ub4j3kxvm",594,"136.csv","","null","resources/maskTrios/L1BB.jpg","null","",NA,NA,NA,NA,""
"image-keyboard-response",349,323356,"0.0-3.112-2.112","s942g0ub4j3kxvm",594,"136.csv","","null","resources/images/coin2.png","null","",NA,NA,NA,NA,""
"image-keyboard-response",350,323517,"0.0-3.113-0.113","s942g0ub4j3kxvm",594,"136.csv","","158.59999990463257","resources/trios/L1T1A1.jpg","38","restless",0.6,0.5,0.9,0.568757532180673,"false"
"image-keyboard-response",351,323934,"0.0-3.113-1.113","s942g0ub4j3kxvm",594,"136.csv","","null","resources/maskTrios/BT1B.jpg","null","",NA,NA,NA,NA,""
"image-keyboard-response",352,325139,"0.0-3.113-2.113","s942g0ub4j3kxvm",594,"136.csv","","null","resources/images/fishbone.png","null","",NA,NA,NA,NA,""
"image-keyboard-response",353,325232,"0.0-3.114-0.114","s942g0ub4j3kxvm",594,"136.csv","","90.5","resources/trios/L1T2A1.jpg","39","restless",0.6,0.5,0.9,0.183959077148116,"true"
"image-keyboard-response",354,325642,"0.0-3.114-1.114","s942g0ub4j3kxvm",594,"136.csv","","null","resources/maskTrios/BBA1.jpg","null","",NA,NA,NA,NA,""
"image-keyboard-response",355,326856,"0.0-3.114-2.114","s942g0ub4j3kxvm",594,"136.csv","","null","resources/images/coin2.png","null","",NA,NA,NA,NA,""
"image-keyboard-response",356,327256,"0.0-3.115-0.115","s942g0ub4j3kxvm",594,"136.csv","","398.40000009536743","resources/trios/L1T1A1.jpg","37","restless",0.6,0.5,0.9,0.471473597620768,"true"
"image-keyboard-response",357,327661,"0.0-3.115-1.115","s942g0ub4j3kxvm",594,"136.csv","","null","resources/maskTrios/L1BB.jpg","null","",NA,NA,NA,NA,""
"image-keyboard-response",358,328865,"0.0-3.115-2.115","s942g0ub4j3kxvm",594,"136.csv","","null","resources/images/coin2.png","null","",NA,NA,NA,NA,""
"image-keyboard-response",359,329084,"0.0-3.116-0.116","s942g0ub4j3kxvm",594,"136.csv","","217.2000002861023","resources/trios/L4T2A1.jpg","38","restless",0.6,0.5,0.9,0.396254670568294,"true"
"image-keyboard-response",360,329489,"0.0-3.116-1.116","s942g0ub4j3kxvm",594,"136.csv","","null","resources/maskTrios/BT2B.jpg","null","",NA,NA,NA,NA,""
"image-keyboard-response",361,330696,"0.0-3.116-2.116","s942g0ub4j3kxvm",594,"136.csv","","null","resources/images/coin2.png","null","",NA,NA,NA,NA,""
"image-keyboard-response",362,330946,"0.0-3.117-0.117","s942g0ub4j3kxvm",594,"136.csv","","247.59999990463257","resources/trios/L4T1A2.jpg","39","restless",0.6,0.5,0.9,0.756131107234681,"true"
"image-keyboard-response",363,331357,"0.0-3.117-1.117","s942g0ub4j3kxvm",594,"136.csv","","null","resources/maskTrios/BBA2.jpg","null","",NA,NA,NA,NA,""
"image-keyboard-response",364,332574,"0.0-3.117-2.117","s942g0ub4j3kxvm",594,"136.csv","","null","resources/images/coin2.png","null","",NA,NA,NA,NA,""
"image-keyboard-response",365,332676,"0.0-3.118-0.118","s942g0ub4j3kxvm",594,"136.csv","","99.5","resources/trios/L4T1A2.jpg","37","restless",0.6,0.5,0.9,0.0680214194432911,"true"
"image-keyboard-response",366,333092,"0.0-3.118-1.118","s942g0ub4j3kxvm",594,"136.csv","","null","resources/maskTrios/L4BB.jpg","null","",NA,NA,NA,NA,""
"image-keyboard-response",367,334302,"0.0-3.118-2.118","s942g0ub4j3kxvm",594,"136.csv","","null","resources/images/coin2.png","null","",NA,NA,NA,NA,""
"image-keyboard-response",368,334382,"0.0-3.119-0.119","s942g0ub4j3kxvm",594,"136.csv","","78.30000019073486","resources/trios/L1T1A2.jpg","38","restless",0.6,0.5,0.9,0.0305269104285639,"true"
"image-keyboard-response",369,334799,"0.0-3.119-1.119","s942g0ub4j3kxvm",594,"136.csv","","null","resources/maskTrios/BT1B.jpg","null","",NA,NA,NA,NA,""
"image-keyboard-response",370,336008,"0.0-3.119-2.119","s942g0ub4j3kxvm",594,"136.csv","","null","resources/images/coin2.png","null","",NA,NA,NA,NA,""
"image-keyboard-response",371,336350,"0.0-3.120-0.120","s942g0ub4j3kxvm",594,"136.csv","","340","resources/trios/L4T1A1.jpg","37","restless",0.6,0.5,0.9,0.501343533919735,"true"
"image-keyboard-response",372,336762,"0.0-3.120-1.120","s942g0ub4j3kxvm",594,"136.csv","","null","resources/maskTrios/L4BB.jpg","null","",NA,NA,NA,NA,""
"image-keyboard-response",373,337968,"0.0-3.120-2.120","s942g0ub4j3kxvm",594,"136.csv","","null","resources/images/coin2.png","null","",NA,NA,NA,NA,""
"image-keyboard-response",374,338209,"0.0-3.121-0.121","s942g0ub4j3kxvm",594,"136.csv","","239","resources/trios/L1T1A1.jpg","39","restless",0.6,0.5,0.9,0.00065946060694988,"true"
"image-keyboard-response",375,338618,"0.0-3.121-1.121","s942g0ub4j3kxvm",594,"136.csv","","null","resources/maskTrios/BBA1.jpg","null","",NA,NA,NA,NA,""
"image-keyboard-response",376,339831,"0.0-3.121-2.121","s942g0ub4j3kxvm",594,"136.csv","","null","resources/images/coin2.png","null","",NA,NA,NA,NA,""
"image-keyboard-response",377,340027,"0.0-3.122-0.122","s942g0ub4j3kxvm",594,"136.csv","","194.5","resources/trios/L4T1A2.jpg","38","restless",0.6,0.5,0.9,0.746677328018009,"false"
"image-keyboard-response",378,340435,"0.0-3.122-1.122","s942g0ub4j3kxvm",594,"136.csv","","null","resources/maskTrios/BT1B.jpg","null","",NA,NA,NA,NA,""
"image-keyboard-response",379,341652,"0.0-3.122-2.122","s942g0ub4j3kxvm",594,"136.csv","","null","resources/images/fishbone.png","null","",NA,NA,NA,NA,""
"image-keyboard-response",380,341771,"0.0-3.123-0.123","s942g0ub4j3kxvm",594,"136.csv","","116.89999961853027","resources/trios/L1T1A1.jpg","37","restless",0.6,0.5,0.9,0.759527928749579,"false"
"image-keyboard-response",381,342174,"0.0-3.123-1.123","s942g0ub4j3kxvm",594,"136.csv","","null","resources/maskTrios/L1BB.jpg","null","",NA,NA,NA,NA,""
"image-keyboard-response",382,343379,"0.0-3.123-2.123","s942g0ub4j3kxvm",594,"136.csv","","null","resources/images/fishbone.png","null","",NA,NA,NA,NA,""
"image-keyboard-response",383,343518,"0.0-3.124-0.124","s942g0ub4j3kxvm",594,"136.csv","","137.19999980926514","resources/trios/L4T2A1.jpg","39","restless",0.6,0.4,0.9,0.715324495648719,"true"
"image-keyboard-response",384,343929,"0.0-3.124-1.124","s942g0ub4j3kxvm",594,"136.csv","","null","resources/maskTrios/BBA1.jpg","null","",NA,NA,NA,NA,""
"image-keyboard-response",385,345145,"0.0-3.124-2.124","s942g0ub4j3kxvm",594,"136.csv","","null","resources/images/coin2.png","null","",NA,NA,NA,NA,""
"image-keyboard-response",386,345201,"0.0-3.125-0.125","s942g0ub4j3kxvm",594,"136.csv","","53.700000286102295","resources/trios/L1T2A2.jpg","38","restless",0.6,0.4,0.9,0.0963091519717951,"true"
"image-keyboard-response",387,345605,"0.0-3.125-1.125","s942g0ub4j3kxvm",594,"136.csv","","null","resources/maskTrios/BT2B.jpg","null","",NA,NA,NA,NA,""
"image-keyboard-response",388,346817,"0.0-3.125-2.125","s942g0ub4j3kxvm",594,"136.csv","","null","resources/images/coin2.png","null","",NA,NA,NA,NA,""
"image-keyboard-response",389,346841,"0.0-3.126-0.126","s942g0ub4j3kxvm",594,"136.csv","","21.800000190734863","resources/trios/L1T1A1.jpg","39","restless",0.6,0.4,0.9,0.459619534711443,"true"
"image-keyboard-response",390,347256,"0.0-3.126-1.126","s942g0ub4j3kxvm",594,"136.csv","","null","resources/maskTrios/BBA1.jpg","null","",NA,NA,NA,NA,""
"image-keyboard-response",391,348465,"0.0-3.126-2.126","s942g0ub4j3kxvm",594,"136.csv","","null","resources/images/coin2.png","null","",NA,NA,NA,NA,""
"image-keyboard-response",392,348553,"0.0-3.127-0.127","s942g0ub4j3kxvm",594,"136.csv","","85.5","resources/trios/L1T2A1.jpg","38","restless",0.6,0.4,0.9,0.411360762284769,"false"
"image-keyboard-response",393,348960,"0.0-3.127-1.127","s942g0ub4j3kxvm",594,"136.csv","","null","resources/maskTrios/BT2B.jpg","null","",NA,NA,NA,NA,""
"image-keyboard-response",394,350168,"0.0-3.127-2.127","s942g0ub4j3kxvm",594,"136.csv","","null","resources/images/fishbone.png","null","",NA,NA,NA,NA,""
"image-keyboard-response",395,350204,"0.0-3.128-0.128","s942g0ub4j3kxvm",594,"136.csv","","33.5","resources/trios/L1T2A1.jpg","37","restless",0.6,0.4,0.9,0.373438956005774,"true"
"image-keyboard-response",396,350611,"0.0-3.128-1.128","s942g0ub4j3kxvm",594,"136.csv","","null","resources/maskTrios/L1BB.jpg","null","",NA,NA,NA,NA,""
"image-keyboard-response",397,351820,"0.0-3.128-2.128","s942g0ub4j3kxvm",594,"136.csv","","null","resources/images/coin2.png","null","",NA,NA,NA,NA,""
"image-keyboard-response",398,351848,"0.0-3.129-0.129","s942g0ub4j3kxvm",594,"136.csv","","26.300000190734863","resources/trios/L4T1A2.jpg","38","restless",0.6,0.4,0.9,0.383882640768514,"true"
"image-keyboard-response",399,352256,"0.0-3.129-1.129","s942g0ub4j3kxvm",594,"136.csv","","null","resources/maskTrios/BT1B.jpg","null","",NA,NA,NA,NA,""
"image-keyboard-response",400,353462,"0.0-3.129-2.129","s942g0ub4j3kxvm",594,"136.csv","","null","resources/images/coin2.png","null","",NA,NA,NA,NA,""
"image-keyboard-response",401,353902,"0.0-3.130-0.130","s942g0ub4j3kxvm",594,"136.csv","","437.59999990463257","resources/trios/L1T2A1.jpg","39","restless",0.6,0.4,0.9,0.346567395483431,"true"
"image-keyboard-response",402,354308,"0.0-3.130-1.130","s942g0ub4j3kxvm",594,"136.csv","","null","resources/maskTrios/BBA1.jpg","null","",NA,NA,NA,NA,""
"image-keyboard-response",403,355522,"0.0-3.130-2.130","s942g0ub4j3kxvm",594,"136.csv","","null","resources/images/coin2.png","null","",NA,NA,NA,NA,""
"image-keyboard-response",404,355708,"0.0-3.131-0.131","s942g0ub4j3kxvm",594,"136.csv","","183.40000009536743","resources/trios/L1T2A2.jpg","38","restless",0.6,0.4,0.9,0.740166531590802,"false"
"image-keyboard-response",405,356123,"0.0-3.131-1.131","s942g0ub4j3kxvm",594,"136.csv","","null","resources/maskTrios/BT2B.jpg","null","",NA,NA,NA,NA,""
"image-keyboard-response",406,357329,"0.0-3.131-2.131","s942g0ub4j3kxvm",594,"136.csv","","null","resources/images/fishbone.png","null","",NA,NA,NA,NA,""
"image-keyboard-response",407,357511,"0.0-3.132-0.132","s942g0ub4j3kxvm",594,"136.csv","","179.7999997138977","resources/trios/L4T1A2.jpg","37","restless",0.6,0.4,0.8,0.124134714853504,"true"
"image-keyboard-response",408,357928,"0.0-3.132-1.132","s942g0ub4j3kxvm",594,"136.csv","","null","resources/maskTrios/L4BB.jpg","null","",NA,NA,NA,NA,""
"image-keyboard-response",409,359137,"0.0-3.132-2.132","s942g0ub4j3kxvm",594,"136.csv","","null","resources/images/coin2.png","null","",NA,NA,NA,NA,""
"image-keyboard-response",410,359145,"0.0-3.133-0.133","s942g0ub4j3kxvm",594,"136.csv","","5.900000095367432","resources/trios/L4T1A1.jpg","38","restless",0.6,0.4,0.8,0.463136142263558,"false"
"image-keyboard-response",411,359548,"0.0-3.133-1.133","s942g0ub4j3kxvm",594,"136.csv","","null","resources/maskTrios/BT1B.jpg","null","",NA,NA,NA,NA,""
"image-keyboard-response",412,360753,"0.0-3.133-2.133","s942g0ub4j3kxvm",594,"136.csv","","null","resources/images/fishbone.png","null","",NA,NA,NA,NA,""
"image-keyboard-response",413,360934,"0.0-3.134-0.134","s942g0ub4j3kxvm",594,"136.csv","","179.19999980926514","resources/trios/L4T2A2.jpg","37","restless",0.6,0.4,0.8,0.487451379853282,"true"
"image-keyboard-response",414,361350,"0.0-3.134-1.134","s942g0ub4j3kxvm",594,"136.csv","","null","resources/maskTrios/L4BB.jpg","null","",NA,NA,NA,NA,""
"image-keyboard-response",415,362558,"0.0-3.134-2.134","s942g0ub4j3kxvm",594,"136.csv","","null","resources/images/coin2.png","null","",NA,NA,NA,NA,""
"image-keyboard-response",416,362625,"0.0-3.135-0.135","s942g0ub4j3kxvm",594,"136.csv","","64.7999997138977","resources/trios/L1T2A2.jpg","39","restless",0.6,0.4,0.8,0.744502278681612,"true"
"image-keyboard-response",417,363041,"0.0-3.135-1.135","s942g0ub4j3kxvm",594,"136.csv","","null","resources/maskTrios/BBA2.jpg","null","",NA,NA,NA,NA,""
"image-keyboard-response",418,364252,"0.0-3.135-2.135","s942g0ub4j3kxvm",594,"136.csv","","null","resources/images/coin2.png","null","",NA,NA,NA,NA,""
"image-keyboard-response",419,364559,"0.0-3.136-0.136","s942g0ub4j3kxvm",594,"136.csv","","305.5","resources/trios/L4T1A1.jpg","38","restless",0.6,0.4,0.8,0.482072859092753,"false"
"image-keyboard-response",420,364973,"0.0-3.136-1.136","s942g0ub4j3kxvm",594,"136.csv","","null","resources/maskTrios/BT1B.jpg","null","",NA,NA,NA,NA,""
"image-keyboard-response",421,366190,"0.0-3.136-2.136","s942g0ub4j3kxvm",594,"136.csv","","null","resources/images/fishbone.png","null","",NA,NA,NA,NA,""
"image-keyboard-response",422,366277,"0.0-3.137-0.137","s942g0ub4j3kxvm",594,"136.csv","","85.30000019073486","resources/trios/L1T2A1.jpg","39","restless",0.6,0.4,0.8,0.985517817056391,"false"
"image-keyboard-response",423,366683,"0.0-3.137-1.137","s942g0ub4j3kxvm",594,"136.csv","","null","resources/maskTrios/BBA1.jpg","null","",NA,NA,NA,NA,""
"image-keyboard-response",424,367887,"0.0-3.137-2.137","s942g0ub4j3kxvm",594,"136.csv","","null","resources/images/fishbone.png","null","",NA,NA,NA,NA,""
"image-keyboard-response",425,368112,"0.0-3.138-0.138","s942g0ub4j3kxvm",594,"136.csv","","223.09999990463257","resources/trios/L1T2A2.jpg","37","restless",0.6,0.4,0.8,0.964135773123559,"false"
"image-keyboard-response",426,368515,"0.0-3.138-1.138","s942g0ub4j3kxvm",594,"136.csv","","null","resources/maskTrios/L1BB.jpg","null","",NA,NA,NA,NA,""
"image-keyboard-response",427,369730,"0.0-3.138-2.138","s942g0ub4j3kxvm",594,"136.csv","","null","resources/images/fishbone.png","null","",NA,NA,NA,NA,""
"image-keyboard-response",428,369814,"0.0-3.139-0.139","s942g0ub4j3kxvm",594,"136.csv","","81.5","resources/trios/L4T1A1.jpg","38","restless",0.6,0.4,0.8,0.97009587165429,"false"
"image-keyboard-response",429,370229,"0.0-3.139-1.139","s942g0ub4j3kxvm",594,"136.csv","","null","resources/maskTrios/BT1B.jpg","null","",NA,NA,NA,NA,""
"image-keyboard-response",430,371442,"0.0-3.139-2.139","s942g0ub4j3kxvm",594,"136.csv","","null","resources/images/fishbone.png","null","",NA,NA,NA,NA,""
"image-keyboard-response",431,371635,"0.0-3.140-0.140","s942g0ub4j3kxvm",594,"136.csv","","190.40000009536743","resources/trios/L4T1A2.jpg","38","restless",0.6,0.4,0.8,0.0391708851375412,"true"
"image-keyboard-response",432,372052,"0.0-3.140-1.140","s942g0ub4j3kxvm",594,"136.csv","","null","resources/maskTrios/BT1B.jpg","null","",NA,NA,NA,NA,""
"image-keyboard-response",433,373261,"0.0-3.140-2.140","s942g0ub4j3kxvm",594,"136.csv","","null","resources/images/coin2.png","null","",NA,NA,NA,NA,""
"image-keyboard-response",434,373490,"0.0-3.141-0.141","s942g0ub4j3kxvm",594,"136.csv","","227.5","resources/trios/L4T2A2.jpg","39","restless",0.6,0.5,0.8,0.295496081957641,"true"
"image-keyboard-response",435,373909,"0.0-3.141-1.141","s942g0ub4j3kxvm",594,"136.csv","","null","resources/maskTrios/BBA2.jpg","null","",NA,NA,NA,NA,""
"image-keyboard-response",436,375113,"0.0-3.141-2.141","s942g0ub4j3kxvm",594,"136.csv","","null","resources/images/coin2.png","null","",NA,NA,NA,NA,""
"image-keyboard-response",437,375325,"0.0-3.142-0.142","s942g0ub4j3kxvm",594,"136.csv","","211.10000038146973","resources/trios/L4T2A1.jpg","37","restless",0.6,0.5,0.8,0.939532404286215,"false"
"image-keyboard-response",438,375730,"0.0-3.142-1.142","s942g0ub4j3kxvm",594,"136.csv","","null","resources/maskTrios/L4BB.jpg","null","",NA,NA,NA,NA,""
"image-keyboard-response",439,376948,"0.0-3.142-2.142","s942g0ub4j3kxvm",594,"136.csv","","null","resources/images/fishbone.png","null","",NA,NA,NA,NA,""
"image-keyboard-response",440,377185,"0.0-3.143-0.143","s942g0ub4j3kxvm",594,"136.csv","","234.40000009536743","resources/trios/L1T2A2.jpg","38","restless",0.6,0.5,0.8,0.115958324972302,"true"
"image-keyboard-response",441,377599,"0.0-3.143-1.143","s942g0ub4j3kxvm",594,"136.csv","","null","resources/maskTrios/BT2B.jpg","null","",NA,NA,NA,NA,""
"image-keyboard-response",442,378804,"0.0-3.143-2.143","s942g0ub4j3kxvm",594,"136.csv","","null","resources/images/coin2.png","null","",NA,NA,NA,NA,""
"image-keyboard-response",443,379100,"0.0-3.144-0.144","s942g0ub4j3kxvm",594,"136.csv","","294.40000009536743","resources/trios/L1T2A1.jpg","39","restless",0.6,0.5,0.9,0.206745516796939,"true"
"image-keyboard-response",444,379515,"0.0-3.144-1.144","s942g0ub4j3kxvm",594,"136.csv","","null","resources/maskTrios/BBA1.jpg","null","",NA,NA,NA,NA,""
"image-keyboard-response",445,380727,"0.0-3.144-2.144","s942g0ub4j3kxvm",594,"136.csv","","null","resources/images/coin2.png","null","",NA,NA,NA,NA,""
"image-keyboard-response",446,380951,"0.0-3.145-0.145","s942g0ub4j3kxvm",594,"136.csv","","221.5","resources/trios/L4T2A1.jpg","37","restless",0.6,0.5,0.9,0.073151063722062,"true"
"image-keyboard-response",447,381354,"0.0-3.145-1.145","s942g0ub4j3kxvm",594,"136.csv","","null","resources/maskTrios/L4BB.jpg","null","",NA,NA,NA,NA,""
"image-keyboard-response",448,382570,"0.0-3.145-2.145","s942g0ub4j3kxvm",594,"136.csv","","null","resources/images/coin2.png","null","",NA,NA,NA,NA,""
"image-keyboard-response",449,382729,"0.0-3.146-0.146","s942g0ub4j3kxvm",594,"136.csv","","156.5","resources/trios/L4T1A2.jpg","38","restless",0.6,0.5,0.9,0.768572581111062,"false"
"image-keyboard-response",450,383145,"0.0-3.146-1.146","s942g0ub4j3kxvm",594,"136.csv","","null","resources/maskTrios/BT1B.jpg","null","",NA,NA,NA,NA,""
"image-keyboard-response",451,384352,"0.0-3.146-2.146","s942g0ub4j3kxvm",594,"136.csv","","null","resources/images/fishbone.png","null","",NA,NA,NA,NA,""
"image-keyboard-response",452,384482,"0.0-3.147-0.147","s942g0ub4j3kxvm",594,"136.csv","","127.30000019073486","resources/trios/L1T1A2.jpg","39","restless",0.5,0.5,0.9,0.164339269615126,"true"
"image-keyboard-response",453,384891,"0.0-3.147-1.147","s942g0ub4j3kxvm",594,"136.csv","","null","resources/maskTrios/BBA2.jpg","null","",NA,NA,NA,NA,""
"image-keyboard-response",454,386099,"0.0-3.147-2.147","s942g0ub4j3kxvm",594,"136.csv","","null","resources/images/coin2.png","null","",NA,NA,NA,NA,""
"image-keyboard-response",455,386292,"0.0-3.148-0.148","s942g0ub4j3kxvm",594,"136.csv","","190.59999990463257","resources/trios/L4T2A1.jpg","37","restless",0.5,0.5,0.9,0.302594604775752,"true"
"image-keyboard-response",456,386698,"0.0-3.148-1.148","s942g0ub4j3kxvm",594,"136.csv","","null","resources/maskTrios/L4BB.jpg","null","",NA,NA,NA,NA,""
"image-keyboard-response",457,387908,"0.0-3.148-2.148","s942g0ub4j3kxvm",594,"136.csv","","null","resources/images/coin2.png","null","",NA,NA,NA,NA,""
"image-keyboard-response",458,388070,"0.0-3.149-0.149","s942g0ub4j3kxvm",594,"136.csv","","159","resources/trios/L1T2A1.jpg","39","restless",0.5,0.5,0.9,0.382072812391385,"true"
"image-keyboard-response",459,388483,"0.0-3.149-1.149","s942g0ub4j3kxvm",594,"136.csv","","null","resources/maskTrios/BBA1.jpg","null","",NA,NA,NA,NA,""
"image-keyboard-response",460,389699,"0.0-3.149-2.149","s942g0ub4j3kxvm",594,"136.csv","","null","resources/images/coin2.png","null","",NA,NA,NA,NA,""
"image-keyboard-response",461,389895,"0.0-3.150-0.150","s942g0ub4j3kxvm",594,"136.csv","","193.5","resources/trios/L1T2A1.jpg","38","restless",0.5,0.5,0.9,0.952109650218845,"false"
"image-keyboard-response",462,390311,"0.0-3.150-1.150","s942g0ub4j3kxvm",594,"136.csv","","null","resources/maskTrios/BT2B.jpg","null","",NA,NA,NA,NA,""
"image-keyboard-response",463,391520,"0.0-3.150-2.150","s942g0ub4j3kxvm",594,"136.csv","","null","resources/images/fishbone.png","null","",NA,NA,NA,NA,""
"image-keyboard-response",464,391732,"0.0-3.151-0.151","s942g0ub4j3kxvm",594,"136.csv","","209.7000002861023","resources/trios/L1T1A1.jpg","38","restless",0.5,0.5,0.8,0.155196268440498,"true"
"image-keyboard-response",465,392148,"0.0-3.151-1.151","s942g0ub4j3kxvm",594,"136.csv","","null","resources/maskTrios/BT1B.jpg","null","",NA,NA,NA,NA,""
"image-keyboard-response",466,393353,"0.0-3.151-2.151","s942g0ub4j3kxvm",594,"136.csv","","null","resources/images/coin2.png","null","",NA,NA,NA,NA,""
"image-keyboard-response",467,393443,"0.0-3.152-0.152","s942g0ub4j3kxvm",594,"136.csv","","87.09999990463257","resources/trios/L1T2A1.jpg","37","restless",0.5,0.5,0.8,0.724569637919023,"false"
"image-keyboard-response",468,393849,"0.0-3.152-1.152","s942g0ub4j3kxvm",594,"136.csv","","null","resources/maskTrios/L1BB.jpg","null","",NA,NA,NA,NA,""
"image-keyboard-response",469,395070,"0.0-3.152-2.152","s942g0ub4j3kxvm",594,"136.csv","","null","resources/images/fishbone.png","null","",NA,NA,NA,NA,""
"image-keyboard-response",470,395611,"0.0-3.153-0.153","s942g0ub4j3kxvm",594,"136.csv","","538.9000000953674","resources/trios/L1T2A1.jpg","39","restless",0.5,0.5,0.8,0.142373283223162,"true"
"image-keyboard-response",471,396026,"0.0-3.153-1.153","s942g0ub4j3kxvm",594,"136.csv","","null","resources/maskTrios/BBA1.jpg","null","",NA,NA,NA,NA,""
"image-keyboard-response",472,397238,"0.0-3.153-2.153","s942g0ub4j3kxvm",594,"136.csv","","null","resources/images/coin2.png","null","",NA,NA,NA,NA,""
"image-keyboard-response",473,397474,"0.0-3.154-0.154","s942g0ub4j3kxvm",594,"136.csv","","233.60000038146973","resources/trios/L1T2A1.jpg","38","restless",0.5,0.5,0.8,0.791737063746133,"false"
"image-keyboard-response",474,397888,"0.0-3.154-1.154","s942g0ub4j3kxvm",594,"136.csv","","null","resources/maskTrios/BT2B.jpg","null","",NA,NA,NA,NA,""
"image-keyboard-response",475,399097,"0.0-3.154-2.154","s942g0ub4j3kxvm",594,"136.csv","","null","resources/images/fishbone.png","null","",NA,NA,NA,NA,""
"image-keyboard-response",476,399198,"0.0-3.155-0.155","s942g0ub4j3kxvm",594,"136.csv","","98.2999997138977","resources/trios/L4T1A1.jpg","39","restless",0.5,0.5,0.8,0.834757084396649,"false"
"image-keyboard-response",477,399609,"0.0-3.155-1.155","s942g0ub4j3kxvm",594,"136.csv","","null","resources/maskTrios/BBA1.jpg","null","",NA,NA,NA,NA,""
"image-keyboard-response",478,400811,"0.0-3.155-2.155","s942g0ub4j3kxvm",594,"136.csv","","null","resources/images/fishbone.png","null","",NA,NA,NA,NA,""
"image-keyboard-response",479,401020,"0.0-3.156-0.156","s942g0ub4j3kxvm",594,"136.csv","","207","resources/trios/L4T1A2.jpg","38","restless",0.4,0.5,0.8,0.910435914288033,"false"
"image-keyboard-response",480,401423,"0.0-3.156-1.156","s942g0ub4j3kxvm",594,"136.csv","","null","resources/maskTrios/BT1B.jpg","null","",NA,NA,NA,NA,""
"image-keyboard-response",481,402631,"0.0-3.156-2.156","s942g0ub4j3kxvm",594,"136.csv","","null","resources/images/fishbone.png","null","",NA,NA,NA,NA,""
"image-keyboard-response",482,402941,"0.0-3.157-0.157","s942g0ub4j3kxvm",594,"136.csv","","308","resources/trios/L1T1A2.jpg","38","restless",0.4,0.5,0.7,0.129000132389335,"true"
"image-keyboard-response",483,403346,"0.0-3.157-1.157","s942g0ub4j3kxvm",594,"136.csv","","null","resources/maskTrios/BT1B.jpg","null","",NA,NA,NA,NA,""
"image-keyboard-response",484,404561,"0.0-3.157-2.157","s942g0ub4j3kxvm",594,"136.csv","","null","resources/images/coin2.png","null","",NA,NA,NA,NA,""
"image-keyboard-response",485,404785,"0.0-3.158-0.158","s942g0ub4j3kxvm",594,"136.csv","","221.69999980926514","resources/trios/L4T1A1.jpg","37","restless",0.5,0.5,0.7,0.477848375151493,"true"
"image-keyboard-response",486,405193,"0.0-3.158-1.158","s942g0ub4j3kxvm",594,"136.csv","","null","resources/maskTrios/L4BB.jpg","null","",NA,NA,NA,NA,""
"image-keyboard-response",487,406406,"0.0-3.158-2.158","s942g0ub4j3kxvm",594,"136.csv","","null","resources/images/coin2.png","null","",NA,NA,NA,NA,""
"image-keyboard-response",488,406535,"0.0-3.159-0.159","s942g0ub4j3kxvm",594,"136.csv","","126.19999980926514","resources/trios/L1T1A2.jpg","38","restless",0.5,0.5,0.7,0.270050105891229,"true"
"image-keyboard-response",489,406949,"0.0-3.159-1.159","s942g0ub4j3kxvm",594,"136.csv","","null","resources/maskTrios/BT1B.jpg","null","",NA,NA,NA,NA,""
"image-keyboard-response",490,408152,"0.0-3.159-2.159","s942g0ub4j3kxvm",594,"136.csv","","null","resources/images/coin2.png","null","",NA,NA,NA,NA,""
"image-keyboard-response",491,408403,"0.0-3.160-0.160","s942g0ub4j3kxvm",594,"136.csv","","248.7999997138977","resources/trios/L4T2A2.jpg","39","restless",0.5,0.5,0.6,0.901394039160772,"false"
"image-keyboard-response",492,408808,"0.0-3.160-1.160","s942g0ub4j3kxvm",594,"136.csv","","null","resources/maskTrios/BBA2.jpg","null","",NA,NA,NA,NA,""
"image-keyboard-response",493,410014,"0.0-3.160-2.160","s942g0ub4j3kxvm",594,"136.csv","","null","resources/images/fishbone.png","null","",NA,NA,NA,NA,""
"image-keyboard-response",494,410198,"0.0-3.161-0.161","s942g0ub4j3kxvm",594,"136.csv","","181.7999997138977","resources/trios/L1T2A2.jpg","38","restless",0.5,0.5,0.6,0.552202269563344,"false"
"image-keyboard-response",495,410603,"0.0-3.161-1.161","s942g0ub4j3kxvm",594,"136.csv","","null","resources/maskTrios/BT2B.jpg","null","",NA,NA,NA,NA,""
"image-keyboard-response",496,411818,"0.0-3.161-2.161","s942g0ub4j3kxvm",594,"136.csv","","null","resources/images/fishbone.png","null","",NA,NA,NA,NA,""
"image-keyboard-response",497,412251,"0.0-3.162-0.162","s942g0ub4j3kxvm",594,"136.csv","","431.09999990463257","resources/trios/L1T1A1.jpg","38","restless",0.5,0.5,0.6,0.212747549820077,"true"
"image-keyboard-response",498,412661,"0.0-3.162-1.162","s942g0ub4j3kxvm",594,"136.csv","","null","resources/maskTrios/BT1B.jpg","null","",NA,NA,NA,NA,""
"image-keyboard-response",499,413866,"0.0-3.162-2.162","s942g0ub4j3kxvm",594,"136.csv","","null","resources/images/coin2.png","null","",NA,NA,NA,NA,""
"image-keyboard-response",500,414034,"0.0-3.163-0.163","s942g0ub4j3kxvm",594,"136.csv","","165.09999990463257","resources/trios/L1T2A2.jpg","37","restless",0.5,0.5,0.6,0.807108281739326,"false"
"image-keyboard-response",501,414444,"0.0-3.163-1.163","s942g0ub4j3kxvm",594,"136.csv","","null","resources/maskTrios/L1BB.jpg","null","",NA,NA,NA,NA,""
"image-keyboard-response",502,415651,"0.0-3.163-2.163","s942g0ub4j3kxvm",594,"136.csv","","null","resources/images/fishbone.png","null","",NA,NA,NA,NA,""
"image-keyboard-response",503,415812,"0.0-3.164-0.164","s942g0ub4j3kxvm",594,"136.csv","","158.40000009536743","resources/trios/L1T2A2.jpg","39","restless",0.5,0.5,0.6,0.998235955950618,"false"
"image-keyboard-response",504,416229,"0.0-3.164-1.164","s942g0ub4j3kxvm",594,"136.csv","","null","resources/maskTrios/BBA2.jpg","null","",NA,NA,NA,NA,""
"image-keyboard-response",505,417437,"0.0-3.164-2.164","s942g0ub4j3kxvm",594,"136.csv","","null","resources/images/fishbone.png","null","",NA,NA,NA,NA,""
"image-keyboard-response",506,417561,"0.0-3.165-0.165","s942g0ub4j3kxvm",594,"136.csv","","121.80000019073486","resources/trios/L4T1A2.jpg","39","restless",0.5,0.5,0.6,0.362012562800912,"true"
"image-keyboard-response",507,417963,"0.0-3.165-1.165","s942g0ub4j3kxvm",594,"136.csv","","null","resources/maskTrios/BBA2.jpg","null","",NA,NA,NA,NA,""
"image-keyboard-response",508,419181,"0.0-3.165-2.165","s942g0ub4j3kxvm",594,"136.csv","","null","resources/images/coin2.png","null","",NA,NA,NA,NA,""
"image-keyboard-response",509,419430,"0.0-3.166-0.166","s942g0ub4j3kxvm",594,"136.csv","","247.19999980926514","resources/trios/L1T2A1.jpg","38","restless",0.5,0.5,0.6,0.456446887236386,"true"
"image-keyboard-response",510,419843,"0.0-3.166-1.166","s942g0ub4j3kxvm",594,"136.csv","","null","resources/maskTrios/BT2B.jpg","null","",NA,NA,NA,NA,""
"image-keyboard-response",511,421050,"0.0-3.166-2.166","s942g0ub4j3kxvm",594,"136.csv","","null","resources/images/coin2.png","null","",NA,NA,NA,NA,""
"image-keyboard-response",512,421279,"0.0-3.167-0.167","s942g0ub4j3kxvm",594,"136.csv","","225.90000009536743","resources/trios/L4T2A1.jpg","39","restless",0.5,0.6,0.6,0.479203308939396,"true"
"image-keyboard-response",513,421693,"0.0-3.167-1.167","s942g0ub4j3kxvm",594,"136.csv","","null","resources/maskTrios/BBA1.jpg","null","",NA,NA,NA,NA,""
"image-keyboard-response",514,422898,"0.0-3.167-2.167","s942g0ub4j3kxvm",594,"136.csv","","null","resources/images/coin2.png","null","",NA,NA,NA,NA,""
"image-keyboard-response",515,423184,"0.0-3.168-0.168","s942g0ub4j3kxvm",594,"136.csv","","284","resources/trios/L4T1A1.jpg","37","restless",0.5,0.6,0.6,0.469526527025431,"true"
"image-keyboard-response",516,423596,"0.0-3.168-1.168","s942g0ub4j3kxvm",594,"136.csv","","null","resources/maskTrios/L4BB.jpg","null","",NA,NA,NA,NA,""
"image-keyboard-response",517,424807,"0.0-3.168-2.168","s942g0ub4j3kxvm",594,"136.csv","","null","resources/images/coin2.png","null","",NA,NA,NA,NA,""
"image-keyboard-response",518,425043,"0.0-3.169-0.169","s942g0ub4j3kxvm",594,"136.csv","","233","resources/trios/L1T2A2.jpg","39","restless",0.5,0.6,0.6,0.639757496393413,"false"
"image-keyboard-response",519,425451,"0.0-3.169-1.169","s942g0ub4j3kxvm",594,"136.csv","","null","resources/maskTrios/BBA2.jpg","null","",NA,NA,NA,NA,""
"image-keyboard-response",520,426657,"0.0-3.169-2.169","s942g0ub4j3kxvm",594,"136.csv","","null","resources/images/fishbone.png","null","",NA,NA,NA,NA,""
"image-keyboard-response",521,427116,"0.0-3.170-0.170","s942g0ub4j3kxvm",594,"136.csv","","456.59999990463257","resources/trios/L1T1A1.jpg","37","restless",0.4,0.6,0.6,0.777882456952324,"false"
"image-keyboard-response",522,427534,"0.0-3.170-1.170","s942g0ub4j3kxvm",594,"136.csv","","null","resources/maskTrios/L1BB.jpg","null","",NA,NA,NA,NA,""
"image-keyboard-response",523,428738,"0.0-3.170-2.170","s942g0ub4j3kxvm",594,"136.csv","","null","resources/images/fishbone.png","null","",NA,NA,NA,NA,""
"image-keyboard-response",524,428947,"0.0-3.171-0.171","s942g0ub4j3kxvm",594,"136.csv","","206.19999980926514","resources/trios/L4T2A1.jpg","39","restless",0.4,0.6,0.6,0.335727237004671,"true"
"image-keyboard-response",525,429360,"0.0-3.171-1.171","s942g0ub4j3kxvm",594,"136.csv","","null","resources/maskTrios/BBA1.jpg","null","",NA,NA,NA,NA,""
"image-keyboard-response",526,430578,"0.0-3.171-2.171","s942g0ub4j3kxvm",594,"136.csv","","null","resources/images/coin2.png","null","",NA,NA,NA,NA,""
"image-keyboard-response",527,430803,"0.0-3.172-0.172","s942g0ub4j3kxvm",594,"136.csv","","223.59999990463257","resources/trios/L1T1A2.jpg","38","restless",0.4,0.6,0.6,0.942292208821522,"false"
"image-keyboard-response",528,431218,"0.0-3.172-1.172","s942g0ub4j3kxvm",594,"136.csv","","null","resources/maskTrios/BT1B.jpg","null","",NA,NA,NA,NA,""
"image-keyboard-response",529,432421,"0.0-3.172-2.172","s942g0ub4j3kxvm",594,"136.csv","","null","resources/images/fishbone.png","null","",NA,NA,NA,NA,""
"image-keyboard-response",530,432682,"0.0-3.173-0.173","s942g0ub4j3kxvm",594,"136.csv","","258.69999980926514","resources/trios/L1T2A2.jpg","37","restless",0.4,0.6,0.6,0.377929995875298,"true"
"image-keyboard-response",531,433091,"0.0-3.173-1.173","s942g0ub4j3kxvm",594,"136.csv","","null","resources/maskTrios/L1BB.jpg","null","",NA,NA,NA,NA,""
"image-keyboard-response",532,434302,"0.0-3.173-2.173","s942g0ub4j3kxvm",594,"136.csv","","null","resources/images/coin2.png","null","",NA,NA,NA,NA,""
"image-keyboard-response",533,434508,"0.0-3.174-0.174","s942g0ub4j3kxvm",594,"136.csv","","203.30000019073486","resources/trios/L1T2A1.jpg","39","restless",0.5,0.6,0.6,0.649608245237867,"false"
"image-keyboard-response",534,434921,"0.0-3.174-1.174","s942g0ub4j3kxvm",594,"136.csv","","null","resources/maskTrios/BBA1.jpg","null","",NA,NA,NA,NA,""
"image-keyboard-response",535,436134,"0.0-3.174-2.174","s942g0ub4j3kxvm",594,"136.csv","","null","resources/images/fishbone.png","null","",NA,NA,NA,NA,""
"image-keyboard-response",536,436415,"0.0-3.175-0.175","s942g0ub4j3kxvm",594,"136.csv","","279.09999990463257","resources/trios/L4T1A2.jpg","38","restless",0.5,0.5,0.5,0.0979300139913082,"true"
"image-keyboard-response",537,436820,"0.0-3.175-1.175","s942g0ub4j3kxvm",594,"136.csv","","null","resources/maskTrios/BT1B.jpg","null","",NA,NA,NA,NA,""
"image-keyboard-response",538,438024,"0.0-3.175-2.175","s942g0ub4j3kxvm",594,"136.csv","","null","resources/images/coin2.png","null","",NA,NA,NA,NA,""
"image-keyboard-response",539,438037,"0.0-3.176-0.176","s942g0ub4j3kxvm",594,"136.csv","","10.799999713897705","resources/trios/L4T1A2.jpg","37","restless",0.5,0.5,0.5,0.367911042761243,"true"
"image-keyboard-response",540,438441,"0.0-3.176-1.176","s942g0ub4j3kxvm",594,"136.csv","","null","resources/maskTrios/L4BB.jpg","null","",NA,NA,NA,NA,""
"image-keyboard-response",541,439649,"0.0-3.176-2.176","s942g0ub4j3kxvm",594,"136.csv","","null","resources/images/coin2.png","null","",NA,NA,NA,NA,""
"image-keyboard-response",542,439898,"0.0-3.177-0.177","s942g0ub4j3kxvm",594,"136.csv","","246","resources/trios/L1T1A1.jpg","38","restless",0.5,0.5,0.5,0.828728789704026,"false"
"image-keyboard-response",543,440304,"0.0-3.177-1.177","s942g0ub4j3kxvm",594,"136.csv","","null","resources/maskTrios/BT1B.jpg","null","",NA,NA,NA,NA,""
"image-keyboard-response",544,441521,"0.0-3.177-2.177","s942g0ub4j3kxvm",594,"136.csv","","null","resources/images/fishbone.png","null","",NA,NA,NA,NA,""
"image-keyboard-response",545,441701,"0.0-3.178-0.178","s942g0ub4j3kxvm",594,"136.csv","","177.2999997138977","resources/trios/L1T1A2.jpg","37","restless",0.5,0.5,0.5,0.395777457973445,"true"
"image-keyboard-response",546,442107,"0.0-3.178-1.178","s942g0ub4j3kxvm",594,"136.csv","","null","resources/maskTrios/L1BB.jpg","null","",NA,NA,NA,NA,""
"image-keyboard-response",547,443324,"0.0-3.178-2.178","s942g0ub4j3kxvm",594,"136.csv","","null","resources/images/coin2.png","null","",NA,NA,NA,NA,""
"image-keyboard-response",548,443484,"0.0-3.179-0.179","s942g0ub4j3kxvm",594,"136.csv","","157.89999961853027","resources/trios/L1T2A1.jpg","39","restless",0.6,0.5,0.5,0.856098480208622,"false"
"image-keyboard-response",549,443899,"0.0-3.179-1.179","s942g0ub4j3kxvm",594,"136.csv","","null","resources/maskTrios/BBA1.jpg","null","",NA,NA,NA,NA,""
"image-keyboard-response",550,445102,"0.0-3.179-2.179","s942g0ub4j3kxvm",594,"136.csv","","null","resources/images/fishbone.png","null","",NA,NA,NA,NA,""
"image-keyboard-response",551,445307,"0.0-3.180-0.180","s942g0ub4j3kxvm",594,"136.csv","","203.80000019073486","resources/trios/L1T1A1.jpg","38","restless",0.6,0.4,0.5,0.11374827586845,"true"
"image-keyboard-response",552,445711,"0.0-3.180-1.180","s942g0ub4j3kxvm",594,"136.csv","","null","resources/maskTrios/BT1B.jpg","null","",NA,NA,NA,NA,""
"image-keyboard-response",553,446915,"0.0-3.180-2.180","s942g0ub4j3kxvm",594,"136.csv","","null","resources/images/coin2.png","null","",NA,NA,NA,NA,""
"image-keyboard-response",554,447119,"0.0-3.181-0.181","s942g0ub4j3kxvm",594,"136.csv","","202.2999997138977","resources/trios/L1T1A1.jpg","37","restless",0.6,0.4,0.5,0.838228304614445,"false"
"image-keyboard-response",555,447530,"0.0-3.181-1.181","s942g0ub4j3kxvm",594,"136.csv","","null","resources/maskTrios/L1BB.jpg","null","",NA,NA,NA,NA,""
"image-keyboard-response",556,448742,"0.0-3.181-2.181","s942g0ub4j3kxvm",594,"136.csv","","null","resources/images/fishbone.png","null","",NA,NA,NA,NA,""
"image-keyboard-response",557,448801,"0.0-3.182-0.182","s942g0ub4j3kxvm",594,"136.csv","","56.59999990463257","resources/trios/L4T2A1.jpg","38","restless",0.6,0.4,0.5,0.646861528139618,"false"
"image-keyboard-response",558,449215,"0.0-3.182-1.182","s942g0ub4j3kxvm",594,"136.csv","","null","resources/maskTrios/BT2B.jpg","null","",NA,NA,NA,NA,""
"image-keyboard-response",559,450431,"0.0-3.182-2.182","s942g0ub4j3kxvm",594,"136.csv","","null","resources/images/fishbone.png","null","",NA,NA,NA,NA,""
"image-keyboard-response",560,450637,"0.0-3.183-0.183","s942g0ub4j3kxvm",594,"136.csv","","204.10000038146973","resources/trios/L1T2A2.jpg","39","restless",0.6,0.4,0.5,0.128874243299519,"true"
"image-keyboard-response",561,451051,"0.0-3.183-1.183","s942g0ub4j3kxvm",594,"136.csv","","null","resources/maskTrios/BBA2.jpg","null","",NA,NA,NA,NA,""
"image-keyboard-response",562,452254,"0.0-3.183-2.183","s942g0ub4j3kxvm",594,"136.csv","","null","resources/images/coin2.png","null","",NA,NA,NA,NA,""
"image-keyboard-response",563,452334,"0.0-3.184-0.184","s942g0ub4j3kxvm",594,"136.csv","","77.09999990463257","resources/trios/L4T1A1.jpg","37","restless",0.5,0.5,0.5,0.486747339796593,"true"
"image-keyboard-response",564,452744,"0.0-3.184-1.184","s942g0ub4j3kxvm",594,"136.csv","","null","resources/maskTrios/L4BB.jpg","null","",NA,NA,NA,NA,""
"image-keyboard-response",565,453953,"0.0-3.184-2.184","s942g0ub4j3kxvm",594,"136.csv","","null","resources/images/coin2.png","null","",NA,NA,NA,NA,""
"image-keyboard-response",566,454220,"0.0-3.185-0.185","s942g0ub4j3kxvm",594,"136.csv","","265.40000009536743","resources/trios/L1T1A2.jpg","38","restless",0.5,0.5,0.5,0.328479697481054,"true"
"image-keyboard-response",567,454631,"0.0-3.185-1.185","s942g0ub4j3kxvm",594,"136.csv","","null","resources/maskTrios/BT1B.jpg","null","",NA,NA,NA,NA,""
"image-keyboard-response",568,455840,"0.0-3.185-2.185","s942g0ub4j3kxvm",594,"136.csv","","null","resources/images/coin2.png","null","",NA,NA,NA,NA,""
"image-keyboard-response",569,456218,"0.0-3.186-0.186","s942g0ub4j3kxvm",594,"136.csv","","375.90000009536743","resources/trios/L1T1A2.jpg","37","restless",0.5,0.5,0.5,0.623627016765275,"false"
"image-keyboard-response",570,456623,"0.0-3.186-1.186","s942g0ub4j3kxvm",594,"136.csv","","null","resources/maskTrios/L1BB.jpg","null","",NA,NA,NA,NA,""
"image-keyboard-response",571,457839,"0.0-3.186-2.186","s942g0ub4j3kxvm",594,"136.csv","","null","resources/images/fishbone.png","null","",NA,NA,NA,NA,""
"image-keyboard-response",572,458096,"0.0-3.187-0.187","s942g0ub4j3kxvm",594,"136.csv","","255.40000009536743","resources/trios/L4T1A2.jpg","38","restless",0.5,0.5,0.5,0.665316695183464,"false"
"image-keyboard-response",573,458507,"0.0-3.187-1.187","s942g0ub4j3kxvm",594,"136.csv","","null","resources/maskTrios/BT1B.jpg","null","",NA,NA,NA,NA,""
"image-keyboard-response",574,459722,"0.0-3.187-2.187","s942g0ub4j3kxvm",594,"136.csv","","null","resources/images/fishbone.png","null","",NA,NA,NA,NA,""
"image-keyboard-response",575,460104,"0.0-3.188-0.188","s942g0ub4j3kxvm",594,"136.csv","","380.2000002861023","resources/trios/L1T1A2.jpg","38","restless",0.5,0.5,0.5,0.58542721871649,"false"
"image-keyboard-response",576,460521,"0.0-3.188-1.188","s942g0ub4j3kxvm",594,"136.csv","","null","resources/maskTrios/BT1B.jpg","null","",NA,NA,NA,NA,""
"image-keyboard-response",577,461730,"0.0-3.188-2.188","s942g0ub4j3kxvm",594,"136.csv","","null","resources/images/fishbone.png","null","",NA,NA,NA,NA,""
"image-keyboard-response",578,461942,"0.0-3.189-0.189","s942g0ub4j3kxvm",594,"136.csv","","210.19999980926514","resources/trios/L1T2A2.jpg","38","restless",0.5,0.5,0.5,0.345523567889621,"true"
"image-keyboard-response",579,462346,"0.0-3.189-1.189","s942g0ub4j3kxvm",594,"136.csv","","null","resources/maskTrios/BT2B.jpg","null","",NA,NA,NA,NA,""
"image-keyboard-response",580,463559,"0.0-3.189-2.189","s942g0ub4j3kxvm",594,"136.csv","","null","resources/images/coin2.png","null","",NA,NA,NA,NA,""
"image-keyboard-response",581,463852,"0.0-3.190-0.190","s942g0ub4j3kxvm",594,"136.csv","","290.90000009536743","resources/trios/L4T2A2.jpg","39","restless",0.5,0.5,0.5,0.510415716128207,"false"
"image-keyboard-response",582,464257,"0.0-3.190-1.190","s942g0ub4j3kxvm",594,"136.csv","","null","resources/maskTrios/BBA2.jpg","null","",NA,NA,NA,NA,""
"image-keyboard-response",583,465468,"0.0-3.190-2.190","s942g0ub4j3kxvm",594,"136.csv","","null","resources/images/fishbone.png","null","",NA,NA,NA,NA,""
"image-keyboard-response",584,465731,"0.0-3.191-0.191","s942g0ub4j3kxvm",594,"136.csv","","260.5","resources/trios/L4T1A1.jpg","38","restless",0.5,0.5,0.5,0.612040993475718,"false"
"image-keyboard-response",585,466144,"0.0-3.191-1.191","s942g0ub4j3kxvm",594,"136.csv","","null","resources/maskTrios/BT1B.jpg","null","",NA,NA,NA,NA,""
"image-keyboard-response",586,467358,"0.0-3.191-2.191","s942g0ub4j3kxvm",594,"136.csv","","null","resources/images/fishbone.png","null","",NA,NA,NA,NA,""
"image-keyboard-response",587,467399,"0.0-3.192-0.192","s942g0ub4j3kxvm",594,"136.csv","","40.5","resources/trios/L1T2A1.jpg","38","restless",0.5,0.5,0.5,0.798612163480062,"false"
"image-keyboard-response",588,467812,"0.0-3.192-1.192","s942g0ub4j3kxvm",594,"136.csv","","null","resources/maskTrios/BT2B.jpg","null","",NA,NA,NA,NA,""
"image-keyboard-response",589,469028,"0.0-3.192-2.192","s942g0ub4j3kxvm",594,"136.csv","","null","resources/images/fishbone.png","null","",NA,NA,NA,NA,""
"image-keyboard-response",590,469129,"0.0-3.193-0.193","s942g0ub4j3kxvm",594,"136.csv","","99.5","resources/trios/L4T1A1.jpg","38","restless",0.5,0.5,0.5,0.817793957224132,"false"
"image-keyboard-response",591,469540,"0.0-3.193-1.193","s942g0ub4j3kxvm",594,"136.csv","","null","resources/maskTrios/BT1B.jpg","null","",NA,NA,NA,NA,""
"image-keyboard-response",592,470755,"0.0-3.193-2.193","s942g0ub4j3kxvm",594,"136.csv","","null","resources/images/fishbone.png","null","",NA,NA,NA,NA,""
"image-keyboard-response",593,470919,"0.0-3.194-0.194","s942g0ub4j3kxvm",594,"136.csv","","161.80000019073486","resources/trios/L4T1A2.jpg","38","restless",0.5,0.5,0.5,0.0160617842802075,"true"
"image-keyboard-response",594,471327,"0.0-3.194-1.194","s942g0ub4j3kxvm",594,"136.csv","","null","resources/maskTrios/BT1B.jpg","null","",NA,NA,NA,NA,""
"image-keyboard-response",595,472536,"0.0-3.194-2.194","s942g0ub4j3kxvm",594,"136.csv","","null","resources/images/coin2.png","null","",NA,NA,NA,NA,""
"image-keyboard-response",596,472776,"0.0-3.195-0.195","s942g0ub4j3kxvm",594,"136.csv","","237.19999980926514","resources/trios/L1T2A1.jpg","37","restless",0.5,0.5,0.5,0.400841992029779,"true"
"image-keyboard-response",597,473190,"0.0-3.195-1.195","s942g0ub4j3kxvm",594,"136.csv","","null","resources/maskTrios/L1BB.jpg","null","",NA,NA,NA,NA,""
"image-keyboard-response",598,474398,"0.0-3.195-2.195","s942g0ub4j3kxvm",594,"136.csv","","null","resources/images/coin2.png","null","",NA,NA,NA,NA,""
"image-keyboard-response",599,474606,"0.0-3.196-0.196","s942g0ub4j3kxvm",594,"136.csv","","206.19999980926514","resources/trios/L4T1A1.jpg","39","restless",0.5,0.6,0.4,0.404487722365227,"false"
"image-keyboard-response",600,475024,"0.0-3.196-1.196","s942g0ub4j3kxvm",594,"136.csv","","null","resources/maskTrios/BBA1.jpg","null","",NA,NA,NA,NA,""
"image-keyboard-response",601,476239,"0.0-3.196-2.196","s942g0ub4j3kxvm",594,"136.csv","","null","resources/images/fishbone.png","null","",NA,NA,NA,NA,""
"image-keyboard-response",602,476655,"0.0-3.197-0.197","s942g0ub4j3kxvm",594,"136.csv","","413.2999997138977","resources/trios/L4T2A1.jpg","37","restless",0.5,0.6,0.4,0.96506311719169,"false"
"image-keyboard-response",603,477067,"0.0-3.197-1.197","s942g0ub4j3kxvm",594,"136.csv","","null","resources/maskTrios/L4BB.jpg","null","",NA,NA,NA,NA,""
"image-keyboard-response",604,478278,"0.0-3.197-2.197","s942g0ub4j3kxvm",594,"136.csv","","null","resources/images/fishbone.png","null","",NA,NA,NA,NA,""
"image-keyboard-response",605,478543,"0.0-3.198-0.198","s942g0ub4j3kxvm",594,"136.csv","","263.30000019073486","resources/trios/L4T1A1.jpg","39","restless",0.5,0.6,0.3,0.439989731001943,"false"
