"trial_type","trial_index","time_elapsed","internal_node_id","subject","participantCode","walkNumber","success","rt","stimulus","key_press","test_part","leftProb","midProb","rightProb","generatedNum","correct"
"pavlovia",0,1513,"0.0-0.0","kgjm0ootlyqzgwr",351,"4.csv","","","","","",NA,NA,NA,NA,""
"fullscreen",1,6157,"0.0-1.0","kgjm0ootlyqzgwr",351,"4.csv","true","","","","",NA,NA,NA,NA,""
"html-keyboard-response",2,17665,"0.0-2.0-0.0","kgjm0ootlyqzgwr",351,"4.csv","","11504.5","<p><font size='6'>Arrrgh!</p></font><p>Can you be the best pirate? Try to find lots of gold! But beware, some islands have more gold than others, and over time, the island with the most gold may change. Can YOU figure it out? </p><font size='6'>GOOD LUCK, CAPTAIN!!!</font><p>Press any key to begin</p>","68","",NA,NA,NA,NA,""
"image-keyboard-response",3,20671,"0.0-2.0-1.0","kgjm0ootlyqzgwr",351,"4.csv","","null","resources/image_sets/111.png","null","",NA,NA,NA,NA,""
"image-keyboard-response",4,39204,"0.0-2.0-2.0","kgjm0ootlyqzgwr",351,"4.csv","","18530.89999961853","resources/image_sets/left_highlight.png","37","",NA,NA,NA,NA,""
"image-keyboard-response",5,65101,"0.0-2.0-3.0","kgjm0ootlyqzgwr",351,"4.csv","","25894.900000095367","resources/image_sets/mid_highlight.png","38","",NA,NA,NA,NA,""
"image-keyboard-response",6,71063,"0.0-2.0-4.0","kgjm0ootlyqzgwr",351,"4.csv","","5959.800000190735","resources/image_sets/right_highlight.png","39","",NA,NA,NA,NA,""
"image-keyboard-response",7,77202,"0.0-2.0-5.0","kgjm0ootlyqzgwr",351,"4.csv","","6136.400000095367","resources/image_sets/111.png","13","",NA,NA,NA,NA,""
"image-keyboard-response",8,80911,"0.0-2.0-6.0","kgjm0ootlyqzgwr",351,"4.csv","","3708.3999996185303","resources/images/coin2.png","13","",NA,NA,NA,NA,""
"image-keyboard-response",9,83769,"0.0-2.0-7.0","kgjm0ootlyqzgwr",351,"4.csv","","2856.0999999046326","resources/images/fishbone.png","13","",NA,NA,NA,NA,""
"html-keyboard-response",10,88573,"0.0-2.0-8.0","kgjm0ootlyqzgwr",351,"4.csv","","4803.800000190735","<p>Your first journey will be a long one, but you will get a well deserved break at the end</p><p>After the break you will have four more journeys, but each will be much shorter than the first, and you will have breaks in between each</p><p>Press Enter to begin</p>","13","",NA,NA,NA,NA,""
"image-keyboard-response",11,100893,"0.0-3.0-0.0","kgjm0ootlyqzgwr",351,"4.csv","","12318.099999904633","resources/trios/L1T4A2.jpg","39","restless",0.9,0.7,0.3,0.543486076526947,"false"
"image-keyboard-response",12,101305,"0.0-3.0-1.0","kgjm0ootlyqzgwr",351,"4.csv","","null","resources/maskTrios/BBA2.jpg","null","",NA,NA,NA,NA,""
"image-keyboard-response",13,102515,"0.0-3.0-2.0","kgjm0ootlyqzgwr",351,"4.csv","","null","resources/images/fishbone.png","null","",NA,NA,NA,NA,""
"image-keyboard-response",14,104113,"0.0-3.1-0.1","kgjm0ootlyqzgwr",351,"4.csv","","1594.7000002861023","resources/trios/L2T1A2.jpg","37","restless",0.9,0.7,0.3,0.788135722435516,"true"
"image-keyboard-response",15,104525,"0.0-3.1-1.1","kgjm0ootlyqzgwr",351,"4.csv","","null","resources/maskTrios/L2BB.jpg","null","",NA,NA,NA,NA,""
"image-keyboard-response",16,105738,"0.0-3.1-2.1","kgjm0ootlyqzgwr",351,"4.csv","","null","resources/images/coin2.png","null","",NA,NA,NA,NA,""
"image-keyboard-response",17,109313,"0.0-3.2-0.2","kgjm0ootlyqzgwr",351,"4.csv","","3572.300000190735","resources/trios/L1T4A2.jpg","37","restless",0.9,0.7,0.2,0.0546219284478402,"true"
"image-keyboard-response",18,109716,"0.0-3.2-1.2","kgjm0ootlyqzgwr",351,"4.csv","","null","resources/maskTrios/L1BB.jpg","null","",NA,NA,NA,NA,""
"image-keyboard-response",19,110925,"0.0-3.2-2.2","kgjm0ootlyqzgwr",351,"4.csv","","null","resources/images/coin2.png","null","",NA,NA,NA,NA,""
"image-keyboard-response",20,112852,"0.0-3.3-0.3","kgjm0ootlyqzgwr",351,"4.csv","","1923.2999997138977","resources/trios/L2T4A3.jpg","37","restless",0.9,0.7,0.2,0.117175052209938,"true"
"image-keyboard-response",21,113259,"0.0-3.3-1.3","kgjm0ootlyqzgwr",351,"4.csv","","null","resources/maskTrios/L2BB.jpg","null","",NA,NA,NA,NA,""
"image-keyboard-response",22,114471,"0.0-3.3-2.3","kgjm0ootlyqzgwr",351,"4.csv","","null","resources/images/coin2.png","null","",NA,NA,NA,NA,""
"image-keyboard-response",23,116018,"0.0-3.4-0.4","kgjm0ootlyqzgwr",351,"4.csv","","1544.4000000953674","resources/trios/L2T4A2.jpg","37","restless",0.9,0.7,0.2,0.270627010228265,"true"
"image-keyboard-response",24,116425,"0.0-3.4-1.4","kgjm0ootlyqzgwr",351,"4.csv","","null","resources/maskTrios/L2BB.jpg","null","",NA,NA,NA,NA,""
"image-keyboard-response",25,117639,"0.0-3.4-2.4","kgjm0ootlyqzgwr",351,"4.csv","","null","resources/images/coin2.png","null","",NA,NA,NA,NA,""
"image-keyboard-response",26,118909,"0.0-3.5-0.5","kgjm0ootlyqzgwr",351,"4.csv","","1268","resources/trios/L2T4A3.jpg","39","restless",0.9,0.7,0.2,0.347766938089029,"false"
"image-keyboard-response",27,119315,"0.0-3.5-1.5","kgjm0ootlyqzgwr",351,"4.csv","","null","resources/maskTrios/BBA3.jpg","null","",NA,NA,NA,NA,""
"image-keyboard-response",28,120525,"0.0-3.5-2.5","kgjm0ootlyqzgwr",351,"4.csv","","null","resources/images/fishbone.png","null","",NA,NA,NA,NA,""
"image-keyboard-response",29,121996,"0.0-3.6-0.6","kgjm0ootlyqzgwr",351,"4.csv","","1468.4000000953674","resources/trios/L2T1A2.jpg","37","restless",0.9,0.7,0.2,0.122739755067669,"true"
"image-keyboard-response",30,122405,"0.0-3.6-1.6","kgjm0ootlyqzgwr",351,"4.csv","","null","resources/maskTrios/L2BB.jpg","null","",NA,NA,NA,NA,""
"image-keyboard-response",31,123616,"0.0-3.6-2.6","kgjm0ootlyqzgwr",351,"4.csv","","null","resources/images/coin2.png","null","",NA,NA,NA,NA,""
"image-keyboard-response",32,126108,"0.0-3.7-0.7","kgjm0ootlyqzgwr",351,"4.csv","","2490.300000190735","resources/trios/L2T4A2.jpg","37","restless",0.9,0.7,0.2,0.189799012671475,"true"
"image-keyboard-response",33,126515,"0.0-3.7-1.7","kgjm0ootlyqzgwr",351,"4.csv","","null","resources/maskTrios/L2BB.jpg","null","",NA,NA,NA,NA,""
"image-keyboard-response",34,127738,"0.0-3.7-2.7","kgjm0ootlyqzgwr",351,"4.csv","","null","resources/images/coin2.png","null","",NA,NA,NA,NA,""
"image-keyboard-response",35,129494,"0.0-3.8-0.8","kgjm0ootlyqzgwr",351,"4.csv","","1753.2999997138977","resources/trios/L2T4A3.jpg","37","restless",0.9,0.7,0.2,0.0638806461645767,"true"
"image-keyboard-response",36,129906,"0.0-3.8-1.8","kgjm0ootlyqzgwr",351,"4.csv","","null","resources/maskTrios/L2BB.jpg","null","",NA,NA,NA,NA,""
"image-keyboard-response",37,131115,"0.0-3.8-2.8","kgjm0ootlyqzgwr",351,"4.csv","","null","resources/images/coin2.png","null","",NA,NA,NA,NA,""
"image-keyboard-response",38,132309,"0.0-3.9-0.9","kgjm0ootlyqzgwr",351,"4.csv","","1191.6999998092651","resources/trios/L1T1A2.jpg","37","restless",0.9,0.7,0.2,0.671071263738555,"true"
"image-keyboard-response",39,132717,"0.0-3.9-1.9","kgjm0ootlyqzgwr",351,"4.csv","","null","resources/maskTrios/L1BB.jpg","null","",NA,NA,NA,NA,""
"image-keyboard-response",40,133925,"0.0-3.9-2.9","kgjm0ootlyqzgwr",351,"4.csv","","null","resources/images/coin2.png","null","",NA,NA,NA,NA,""
"image-keyboard-response",41,134452,"0.0-3.10-0.10","kgjm0ootlyqzgwr",351,"4.csv","","524.1999998092651","resources/trios/L2T4A2.jpg","37","restless",0.9,0.6,0.2,0.378011271710162,"true"
"image-keyboard-response",42,134858,"0.0-3.10-1.10","kgjm0ootlyqzgwr",351,"4.csv","","null","resources/maskTrios/L2BB.jpg","null","",NA,NA,NA,NA,""
"image-keyboard-response",43,136072,"0.0-3.10-2.10","kgjm0ootlyqzgwr",351,"4.csv","","null","resources/images/coin2.png","null","",NA,NA,NA,NA,""
"image-keyboard-response",44,136374,"0.0-3.11-0.11","kgjm0ootlyqzgwr",351,"4.csv","","300.2999997138977","resources/trios/L1T1A2.jpg","37","restless",0.9,0.6,0.2,0.237144736598905,"true"
"image-keyboard-response",45,136782,"0.0-3.11-1.11","kgjm0ootlyqzgwr",351,"4.csv","","null","resources/maskTrios/L1BB.jpg","null","",NA,NA,NA,NA,""
"image-keyboard-response",46,137991,"0.0-3.11-2.11","kgjm0ootlyqzgwr",351,"4.csv","","null","resources/images/coin2.png","null","",NA,NA,NA,NA,""
"image-keyboard-response",47,138327,"0.0-3.12-0.12","kgjm0ootlyqzgwr",351,"4.csv","","333.3999996185303","resources/trios/L2T4A3.jpg","37","restless",0.9,0.6,0.2,0.159773892634223,"true"
"image-keyboard-response",48,138738,"0.0-3.12-1.12","kgjm0ootlyqzgwr",351,"4.csv","","null","resources/maskTrios/L2BB.jpg","null","",NA,NA,NA,NA,""
"image-keyboard-response",49,139949,"0.0-3.12-2.12","kgjm0ootlyqzgwr",351,"4.csv","","null","resources/images/coin2.png","null","",NA,NA,NA,NA,""
"image-keyboard-response",50,140242,"0.0-3.13-0.13","kgjm0ootlyqzgwr",351,"4.csv","","290.40000009536743","resources/trios/L1T4A2.jpg","37","restless",0.8,0.6,0.2,0.468187621459617,"true"
"image-keyboard-response",51,140648,"0.0-3.13-1.13","kgjm0ootlyqzgwr",351,"4.csv","","null","resources/maskTrios/L1BB.jpg","null","",NA,NA,NA,NA,""
"image-keyboard-response",52,141859,"0.0-3.13-2.13","kgjm0ootlyqzgwr",351,"4.csv","","null","resources/images/coin2.png","null","",NA,NA,NA,NA,""
"image-keyboard-response",53,142409,"0.0-3.14-0.14","kgjm0ootlyqzgwr",351,"4.csv","","547.0999999046326","resources/trios/L2T1A2.jpg","37","restless",0.8,0.6,0.2,0.655507116466529,"true"
"image-keyboard-response",54,142815,"0.0-3.14-1.14","kgjm0ootlyqzgwr",351,"4.csv","","null","resources/maskTrios/L2BB.jpg","null","",NA,NA,NA,NA,""
"image-keyboard-response",55,144025,"0.0-3.14-2.14","kgjm0ootlyqzgwr",351,"4.csv","","null","resources/images/coin2.png","null","",NA,NA,NA,NA,""
"image-keyboard-response",56,147094,"0.0-3.15-0.15","kgjm0ootlyqzgwr",351,"4.csv","","3063.2999997138977","resources/trios/L2T1A3.jpg","37","restless",0.8,0.6,0.2,0.726903535841768,"true"
"image-keyboard-response",57,147505,"0.0-3.15-1.15","kgjm0ootlyqzgwr",351,"4.csv","","null","resources/maskTrios/L2BB.jpg","null","",NA,NA,NA,NA,""
"image-keyboard-response",58,148716,"0.0-3.15-2.15","kgjm0ootlyqzgwr",351,"4.csv","","null","resources/images/coin2.png","null","",NA,NA,NA,NA,""
"image-keyboard-response",59,149544,"0.0-3.16-0.16","kgjm0ootlyqzgwr",351,"4.csv","","825.7999997138977","resources/trios/L2T4A2.jpg","37","restless",0.8,0.6,0.2,0.744500125621222,"true"
"image-keyboard-response",60,149948,"0.0-3.16-1.16","kgjm0ootlyqzgwr",351,"4.csv","","null","resources/maskTrios/L2BB.jpg","null","",NA,NA,NA,NA,""
"image-keyboard-response",61,151161,"0.0-3.16-2.16","kgjm0ootlyqzgwr",351,"4.csv","","null","resources/images/coin2.png","null","",NA,NA,NA,NA,""
"image-keyboard-response",62,152175,"0.0-3.17-0.17","kgjm0ootlyqzgwr",351,"4.csv","","1012.1999998092651","resources/trios/L1T1A2.jpg","37","restless",0.8,0.6,0.2,0.930966752844609,"false"
"image-keyboard-response",63,152582,"0.0-3.17-1.17","kgjm0ootlyqzgwr",351,"4.csv","","null","resources/maskTrios/L1BB.jpg","null","",NA,NA,NA,NA,""
"image-keyboard-response",64,153792,"0.0-3.17-2.17","kgjm0ootlyqzgwr",351,"4.csv","","null","resources/images/fishbone.png","null","",NA,NA,NA,NA,""
"image-keyboard-response",65,156619,"0.0-3.18-0.18","kgjm0ootlyqzgwr",351,"4.csv","","2825.2999997138977","resources/trios/L1T1A3.jpg","39","restless",0.8,0.6,0.2,0.852760251188966,"false"
"image-keyboard-response",66,157025,"0.0-3.18-1.18","kgjm0ootlyqzgwr",351,"4.csv","","null","resources/maskTrios/BBA3.jpg","null","",NA,NA,NA,NA,""
"image-keyboard-response",67,158238,"0.0-3.18-2.18","kgjm0ootlyqzgwr",351,"4.csv","","null","resources/images/fishbone.png","null","",NA,NA,NA,NA,""
"image-keyboard-response",68,160108,"0.0-3.19-0.19","kgjm0ootlyqzgwr",351,"4.csv","","1867.0999999046326","resources/trios/L1T1A3.jpg","37","restless",0.8,0.5,0.3,0.40260886580696,"true"
"image-keyboard-response",69,160515,"0.0-3.19-1.19","kgjm0ootlyqzgwr",351,"4.csv","","null","resources/maskTrios/L1BB.jpg","null","",NA,NA,NA,NA,""
"image-keyboard-response",70,161727,"0.0-3.19-2.19","kgjm0ootlyqzgwr",351,"4.csv","","null","resources/images/coin2.png","null","",NA,NA,NA,NA,""
"image-keyboard-response",71,164358,"0.0-3.20-0.20","kgjm0ootlyqzgwr",351,"4.csv","","2628.699999809265","resources/trios/L1T4A2.jpg","37","restless",0.8,0.5,0.3,0.654638148404707,"true"
"image-keyboard-response",72,164772,"0.0-3.20-1.20","kgjm0ootlyqzgwr",351,"4.csv","","null","resources/maskTrios/L1BB.jpg","null","",NA,NA,NA,NA,""
"image-keyboard-response",73,165983,"0.0-3.20-2.20","kgjm0ootlyqzgwr",351,"4.csv","","null","resources/images/coin2.png","null","",NA,NA,NA,NA,""
"image-keyboard-response",74,167762,"0.0-3.21-0.21","kgjm0ootlyqzgwr",351,"4.csv","","1777.1999998092651","resources/trios/L2T4A3.jpg","37","restless",0.7,0.5,0.3,0.0196476199420645,"true"
"image-keyboard-response",75,168172,"0.0-3.21-1.21","kgjm0ootlyqzgwr",351,"4.csv","","null","resources/maskTrios/L2BB.jpg","null","",NA,NA,NA,NA,""
"image-keyboard-response",76,169379,"0.0-3.21-2.21","kgjm0ootlyqzgwr",351,"4.csv","","null","resources/images/coin2.png","null","",NA,NA,NA,NA,""
"image-keyboard-response",77,171686,"0.0-3.22-0.22","kgjm0ootlyqzgwr",351,"4.csv","","2304","resources/trios/L1T1A3.jpg","37","restless",0.7,0.4,0.3,0.457841305085489,"true"
"image-keyboard-response",78,172092,"0.0-3.22-1.22","kgjm0ootlyqzgwr",351,"4.csv","","null","resources/maskTrios/L1BB.jpg","null","",NA,NA,NA,NA,""
"image-keyboard-response",79,173306,"0.0-3.22-2.22","kgjm0ootlyqzgwr",351,"4.csv","","null","resources/images/coin2.png","null","",NA,NA,NA,NA,""
"image-keyboard-response",80,174218,"0.0-3.23-0.23","kgjm0ootlyqzgwr",351,"4.csv","","909.5","resources/trios/L2T4A3.jpg","37","restless",0.7,0.4,0.3,0.196281169332973,"true"
"image-keyboard-response",81,174624,"0.0-3.23-1.23","kgjm0ootlyqzgwr",351,"4.csv","","null","resources/maskTrios/L2BB.jpg","null","",NA,NA,NA,NA,""
"image-keyboard-response",82,175839,"0.0-3.23-2.23","kgjm0ootlyqzgwr",351,"4.csv","","null","resources/images/coin2.png","null","",NA,NA,NA,NA,""
"image-keyboard-response",83,176851,"0.0-3.24-0.24","kgjm0ootlyqzgwr",351,"4.csv","","1009.8999996185303","resources/trios/L1T1A2.jpg","37","restless",0.7,0.4,0.4,0.553298925829996,"true"
"image-keyboard-response",84,177272,"0.0-3.24-1.24","kgjm0ootlyqzgwr",351,"4.csv","","null","resources/maskTrios/L1BB.jpg","null","",NA,NA,NA,NA,""
"image-keyboard-response",85,178490,"0.0-3.24-2.24","kgjm0ootlyqzgwr",351,"4.csv","","null","resources/images/coin2.png","null","",NA,NA,NA,NA,""
"image-keyboard-response",86,182254,"0.0-3.25-0.25","kgjm0ootlyqzgwr",351,"4.csv","","3760.300000190735","resources/trios/L1T4A2.jpg","37","restless",0.7,0.4,0.4,0.0513053727339174,"true"
"image-keyboard-response",87,182657,"0.0-3.25-1.25","kgjm0ootlyqzgwr",351,"4.csv","","null","resources/maskTrios/L1BB.jpg","null","",NA,NA,NA,NA,""
"image-keyboard-response",88,183861,"0.0-3.25-2.25","kgjm0ootlyqzgwr",351,"4.csv","","null","resources/images/coin2.png","null","",NA,NA,NA,NA,""
"image-keyboard-response",89,184927,"0.0-3.26-0.26","kgjm0ootlyqzgwr",351,"4.csv","","1063.2000002861023","resources/trios/L2T4A3.jpg","37","restless",0.7,0.4,0.4,0.198811011166,"true"
"image-keyboard-response",90,185338,"0.0-3.26-1.26","kgjm0ootlyqzgwr",351,"4.csv","","null","resources/maskTrios/L2BB.jpg","null","",NA,NA,NA,NA,""
"image-keyboard-response",91,186548,"0.0-3.26-2.26","kgjm0ootlyqzgwr",351,"4.csv","","null","resources/images/coin2.png","null","",NA,NA,NA,NA,""
"image-keyboard-response",92,189542,"0.0-3.27-0.27","kgjm0ootlyqzgwr",351,"4.csv","","2992.0999999046326","resources/trios/L1T1A3.jpg","37","restless",0.7,0.4,0.4,0.997055835800806,"false"
"image-keyboard-response",93,189947,"0.0-3.27-1.27","kgjm0ootlyqzgwr",351,"4.csv","","null","resources/maskTrios/L1BB.jpg","null","",NA,NA,NA,NA,""
"image-keyboard-response",94,191158,"0.0-3.27-2.27","kgjm0ootlyqzgwr",351,"4.csv","","null","resources/images/fishbone.png","null","",NA,NA,NA,NA,""
"image-keyboard-response",95,195243,"0.0-3.28-0.28","kgjm0ootlyqzgwr",351,"4.csv","","4081.9000000953674","resources/trios/L2T1A2.jpg","37","restless",0.7,0.4,0.4,0.692060550500639,"true"
"image-keyboard-response",96,195648,"0.0-3.28-1.28","kgjm0ootlyqzgwr",351,"4.csv","","null","resources/maskTrios/L2BB.jpg","null","",NA,NA,NA,NA,""
"image-keyboard-response",97,196859,"0.0-3.28-2.28","kgjm0ootlyqzgwr",351,"4.csv","","null","resources/images/coin2.png","null","",NA,NA,NA,NA,""
"image-keyboard-response",98,201584,"0.0-3.29-0.29","kgjm0ootlyqzgwr",351,"4.csv","","4722.700000286102","resources/trios/L2T4A3.jpg","37","restless",0.7,0.4,0.4,0.413463983519856,"true"
"image-keyboard-response",99,201991,"0.0-3.29-1.29","kgjm0ootlyqzgwr",351,"4.csv","","null","resources/maskTrios/L2BB.jpg","null","",NA,NA,NA,NA,""
"image-keyboard-response",100,203204,"0.0-3.29-2.29","kgjm0ootlyqzgwr",351,"4.csv","","null","resources/images/coin2.png","null","",NA,NA,NA,NA,""
"image-keyboard-response",101,205017,"0.0-3.30-0.30","kgjm0ootlyqzgwr",351,"4.csv","","1810.5999999046326","resources/trios/L2T4A2.jpg","37","restless",0.7,0.4,0.4,0.466266591233058,"true"
"image-keyboard-response",102,205424,"0.0-3.30-1.30","kgjm0ootlyqzgwr",351,"4.csv","","null","resources/maskTrios/L2BB.jpg","null","",NA,NA,NA,NA,""
"image-keyboard-response",103,206637,"0.0-3.30-2.30","kgjm0ootlyqzgwr",351,"4.csv","","null","resources/images/coin2.png","null","",NA,NA,NA,NA,""
"image-keyboard-response",104,208919,"0.0-3.31-0.31","kgjm0ootlyqzgwr",351,"4.csv","","2278.2999997138977","resources/trios/L1T4A3.jpg","37","restless",0.7,0.4,0.4,0.795501903281923,"false"
"image-keyboard-response",105,209324,"0.0-3.31-1.31","kgjm0ootlyqzgwr",351,"4.csv","","null","resources/maskTrios/L1BB.jpg","null","",NA,NA,NA,NA,""
"image-keyboard-response",106,210537,"0.0-3.31-2.31","kgjm0ootlyqzgwr",351,"4.csv","","null","resources/images/fishbone.png","null","",NA,NA,NA,NA,""
"image-keyboard-response",107,216340,"0.0-3.32-0.32","kgjm0ootlyqzgwr",351,"4.csv","","5800.199999809265","resources/trios/L2T1A2.jpg","37","restless",0.6,0.4,0.4,0.962013825721261,"false"
"image-keyboard-response",108,216747,"0.0-3.32-1.32","kgjm0ootlyqzgwr",351,"4.csv","","null","resources/maskTrios/L2BB.jpg","null","",NA,NA,NA,NA,""
"image-keyboard-response",109,217958,"0.0-3.32-2.32","kgjm0ootlyqzgwr",351,"4.csv","","null","resources/images/fishbone.png","null","",NA,NA,NA,NA,""
"image-keyboard-response",110,219128,"0.0-3.33-0.33","kgjm0ootlyqzgwr",351,"4.csv","","1167.9000000953674","resources/trios/L2T4A3.jpg","39","restless",0.6,0.4,0.5,0.909500077090558,"false"
"image-keyboard-response",111,219537,"0.0-3.33-1.33","kgjm0ootlyqzgwr",351,"4.csv","","null","resources/maskTrios/BBA3.jpg","null","",NA,NA,NA,NA,""
"image-keyboard-response",112,220747,"0.0-3.33-2.33","kgjm0ootlyqzgwr",351,"4.csv","","null","resources/images/fishbone.png","null","",NA,NA,NA,NA,""
"image-keyboard-response",113,221383,"0.0-3.34-0.34","kgjm0ootlyqzgwr",351,"4.csv","","634","resources/trios/L2T4A3.jpg","37","restless",0.6,0.4,0.5,0.359262133253744,"true"
"image-keyboard-response",114,221791,"0.0-3.34-1.34","kgjm0ootlyqzgwr",351,"4.csv","","null","resources/maskTrios/L2BB.jpg","null","",NA,NA,NA,NA,""
"image-keyboard-response",115,222995,"0.0-3.34-2.34","kgjm0ootlyqzgwr",351,"4.csv","","null","resources/images/coin2.png","null","",NA,NA,NA,NA,""
"image-keyboard-response",116,226207,"0.0-3.35-0.35","kgjm0ootlyqzgwr",351,"4.csv","","3209.1000003814697","resources/trios/L2T4A2.jpg","39","restless",0.6,0.3,0.5,0.678198965458342,"false"
"image-keyboard-response",117,226614,"0.0-3.35-1.35","kgjm0ootlyqzgwr",351,"4.csv","","null","resources/maskTrios/BBA2.jpg","null","",NA,NA,NA,NA,""
"image-keyboard-response",118,227823,"0.0-3.35-2.35","kgjm0ootlyqzgwr",351,"4.csv","","null","resources/images/fishbone.png","null","",NA,NA,NA,NA,""
"image-keyboard-response",119,228729,"0.0-3.36-0.36","kgjm0ootlyqzgwr",351,"4.csv","","903.3000001907349","resources/trios/L2T1A3.jpg","37","restless",0.6,0.3,0.5,0.39436507785356,"true"
"image-keyboard-response",120,229137,"0.0-3.36-1.36","kgjm0ootlyqzgwr",351,"4.csv","","null","resources/maskTrios/L2BB.jpg","null","",NA,NA,NA,NA,""
"image-keyboard-response",121,230347,"0.0-3.36-2.36","kgjm0ootlyqzgwr",351,"4.csv","","null","resources/images/coin2.png","null","",NA,NA,NA,NA,""
"image-keyboard-response",122,231918,"0.0-3.37-0.37","kgjm0ootlyqzgwr",351,"4.csv","","1569.5999999046326","resources/trios/L2T4A3.jpg","39","restless",0.6,0.3,0.5,0.790124205592851,"false"
"image-keyboard-response",123,232322,"0.0-3.37-1.37","kgjm0ootlyqzgwr",351,"4.csv","","null","resources/maskTrios/BBA3.jpg","null","",NA,NA,NA,NA,""
"image-keyboard-response",124,233537,"0.0-3.37-2.37","kgjm0ootlyqzgwr",351,"4.csv","","null","resources/images/fishbone.png","null","",NA,NA,NA,NA,""
"image-keyboard-response",125,234217,"0.0-3.38-0.38","kgjm0ootlyqzgwr",351,"4.csv","","677.7000002861023","resources/trios/L2T4A3.jpg","37","restless",0.6,0.2,0.5,0.529422029192581,"true"
"image-keyboard-response",126,234624,"0.0-3.38-1.38","kgjm0ootlyqzgwr",351,"4.csv","","null","resources/maskTrios/L2BB.jpg","null","",NA,NA,NA,NA,""
"image-keyboard-response",127,235837,"0.0-3.38-2.38","kgjm0ootlyqzgwr",351,"4.csv","","null","resources/images/coin2.png","null","",NA,NA,NA,NA,""
"image-keyboard-response",128,236362,"0.0-3.39-0.39","kgjm0ootlyqzgwr",351,"4.csv","","522.5999999046326","resources/trios/L2T1A2.jpg","37","restless",0.6,0.2,0.5,0.13470046166474,"true"
"image-keyboard-response",129,236771,"0.0-3.39-1.39","kgjm0ootlyqzgwr",351,"4.csv","","null","resources/maskTrios/L2BB.jpg","null","",NA,NA,NA,NA,""
"image-keyboard-response",130,237981,"0.0-3.39-2.39","kgjm0ootlyqzgwr",351,"4.csv","","null","resources/images/coin2.png","null","",NA,NA,NA,NA,""
"image-keyboard-response",131,238407,"0.0-3.40-0.40","kgjm0ootlyqzgwr",351,"4.csv","","424","resources/trios/L1T4A3.jpg","37","restless",0.5,0.2,0.5,0.450649891042971,"true"
"image-keyboard-response",132,238814,"0.0-3.40-1.40","kgjm0ootlyqzgwr",351,"4.csv","","null","resources/maskTrios/L1BB.jpg","null","",NA,NA,NA,NA,""
"image-keyboard-response",133,240037,"0.0-3.40-2.40","kgjm0ootlyqzgwr",351,"4.csv","","null","resources/images/coin2.png","null","",NA,NA,NA,NA,""
"image-keyboard-response",134,240685,"0.0-3.41-0.41","kgjm0ootlyqzgwr",351,"4.csv","","645.0999999046326","resources/trios/L1T4A3.jpg","37","restless",0.5,0.2,0.5,0.906974144560274,"false"
"image-keyboard-response",135,241091,"0.0-3.41-1.41","kgjm0ootlyqzgwr",351,"4.csv","","null","resources/maskTrios/L1BB.jpg","null","",NA,NA,NA,NA,""
"image-keyboard-response",136,242304,"0.0-3.41-2.41","kgjm0ootlyqzgwr",351,"4.csv","","null","resources/images/fishbone.png","null","",NA,NA,NA,NA,""
"image-keyboard-response",137,243118,"0.0-3.42-0.42","kgjm0ootlyqzgwr",351,"4.csv","","811.6999998092651","resources/trios/L1T4A2.jpg","39","restless",0.5,0.2,0.5,0.421520081037831,"true"
"image-keyboard-response",138,243524,"0.0-3.42-1.42","kgjm0ootlyqzgwr",351,"4.csv","","null","resources/maskTrios/BBA2.jpg","null","",NA,NA,NA,NA,""
"image-keyboard-response",139,244737,"0.0-3.42-2.42","kgjm0ootlyqzgwr",351,"4.csv","","null","resources/images/coin2.png","null","",NA,NA,NA,NA,""
"image-keyboard-response",140,251595,"0.0-3.43-0.43","kgjm0ootlyqzgwr",351,"4.csv","","6856.099999904633","resources/trios/L2T1A3.jpg","39","restless",0.5,0.2,0.5,0.35573147787457,"true"
"image-keyboard-response",141,252004,"0.0-3.43-1.43","kgjm0ootlyqzgwr",351,"4.csv","","null","resources/maskTrios/BBA3.jpg","null","",NA,NA,NA,NA,""
"image-keyboard-response",142,253214,"0.0-3.43-2.43","kgjm0ootlyqzgwr",351,"4.csv","","null","resources/images/coin2.png","null","",NA,NA,NA,NA,""
"image-keyboard-response",143,255194,"0.0-3.44-0.44","kgjm0ootlyqzgwr",351,"4.csv","","1978","resources/trios/L2T1A2.jpg","37","restless",0.5,0.3,0.5,0.17515511719986,"true"
"image-keyboard-response",144,255604,"0.0-3.44-1.44","kgjm0ootlyqzgwr",351,"4.csv","","null","resources/maskTrios/L2BB.jpg","null","",NA,NA,NA,NA,""
"image-keyboard-response",145,256814,"0.0-3.44-2.44","kgjm0ootlyqzgwr",351,"4.csv","","null","resources/images/coin2.png","null","",NA,NA,NA,NA,""
"image-keyboard-response",146,258760,"0.0-3.45-0.45","kgjm0ootlyqzgwr",351,"4.csv","","1944.2000002861023","resources/trios/L2T1A2.jpg","37","restless",0.5,0.3,0.5,0.626670175172928,"false"
"image-keyboard-response",147,259170,"0.0-3.45-1.45","kgjm0ootlyqzgwr",351,"4.csv","","null","resources/maskTrios/L2BB.jpg","null","",NA,NA,NA,NA,""
"image-keyboard-response",148,260382,"0.0-3.45-2.45","kgjm0ootlyqzgwr",351,"4.csv","","null","resources/images/fishbone.png","null","",NA,NA,NA,NA,""
"image-keyboard-response",149,261894,"0.0-3.46-0.46","kgjm0ootlyqzgwr",351,"4.csv","","1509.7000002861023","resources/trios/L2T1A3.jpg","39","restless",0.5,0.3,0.5,0.00455993310554947,"true"
"image-keyboard-response",150,262304,"0.0-3.46-1.46","kgjm0ootlyqzgwr",351,"4.csv","","null","resources/maskTrios/BBA3.jpg","null","",NA,NA,NA,NA,""
"image-keyboard-response",151,263514,"0.0-3.46-2.46","kgjm0ootlyqzgwr",351,"4.csv","","null","resources/images/coin2.png","null","",NA,NA,NA,NA,""
"image-keyboard-response",152,265319,"0.0-3.47-0.47","kgjm0ootlyqzgwr",351,"4.csv","","1802.9000000953674","resources/trios/L2T4A2.jpg","37","restless",0.5,0.2,0.6,0.995711607817782,"false"
"image-keyboard-response",153,265727,"0.0-3.47-1.47","kgjm0ootlyqzgwr",351,"4.csv","","null","resources/maskTrios/L2BB.jpg","null","",NA,NA,NA,NA,""
"image-keyboard-response",154,266938,"0.0-3.47-2.47","kgjm0ootlyqzgwr",351,"4.csv","","null","resources/images/fishbone.png","null","",NA,NA,NA,NA,""
"image-keyboard-response",155,268307,"0.0-3.48-0.48","kgjm0ootlyqzgwr",351,"4.csv","","1366.3000001907349","resources/trios/L1T4A2.jpg","37","restless",0.4,0.2,0.6,0.501462977527715,"false"
"image-keyboard-response",156,268715,"0.0-3.48-1.48","kgjm0ootlyqzgwr",351,"4.csv","","null","resources/maskTrios/L1BB.jpg","null","",NA,NA,NA,NA,""
"image-keyboard-response",157,269926,"0.0-3.48-2.48","kgjm0ootlyqzgwr",351,"4.csv","","null","resources/images/fishbone.png","null","",NA,NA,NA,NA,""
"image-keyboard-response",158,271227,"0.0-3.49-0.49","kgjm0ootlyqzgwr",351,"4.csv","","1298.5999999046326","resources/trios/L2T1A3.jpg","39","restless",0.3,0.2,0.6,0.77357859734538,"false"
"image-keyboard-response",159,271637,"0.0-3.49-1.49","kgjm0ootlyqzgwr",351,"4.csv","","null","resources/maskTrios/BBA3.jpg","null","",NA,NA,NA,NA,""
"image-keyboard-response",160,272847,"0.0-3.49-2.49","kgjm0ootlyqzgwr",351,"4.csv","","null","resources/images/fishbone.png","null","",NA,NA,NA,NA,""
"image-keyboard-response",161,273650,"0.0-3.50-0.50","kgjm0ootlyqzgwr",351,"4.csv","","800.0999999046326","resources/trios/L2T1A2.jpg","37","restless",0.3,0.2,0.6,0.999451975379683,"false"
"image-keyboard-response",162,274057,"0.0-3.50-1.50","kgjm0ootlyqzgwr",351,"4.csv","","null","resources/maskTrios/L2BB.jpg","null","",NA,NA,NA,NA,""
"image-keyboard-response",163,275270,"0.0-3.50-2.50","kgjm0ootlyqzgwr",351,"4.csv","","null","resources/images/fishbone.png","null","",NA,NA,NA,NA,""
"image-keyboard-response",164,277741,"0.0-3.51-0.51","kgjm0ootlyqzgwr",351,"4.csv","","2468.7999997138977","resources/trios/L2T1A3.jpg","39","restless",0.3,0.2,0.7,0.0200686624605089,"true"
"image-keyboard-response",165,278147,"0.0-3.51-1.51","kgjm0ootlyqzgwr",351,"4.csv","","null","resources/maskTrios/BBA3.jpg","null","",NA,NA,NA,NA,""
"image-keyboard-response",166,279356,"0.0-3.51-2.51","kgjm0ootlyqzgwr",351,"4.csv","","null","resources/images/coin2.png","null","",NA,NA,NA,NA,""
"image-keyboard-response",167,280641,"0.0-3.52-0.52","kgjm0ootlyqzgwr",351,"4.csv","","1282.4000000953674","resources/trios/L1T1A2.jpg","37","restless",0.3,0.2,0.7,0.316358185510087,"false"
"image-keyboard-response",168,281050,"0.0-3.52-1.52","kgjm0ootlyqzgwr",351,"4.csv","","null","resources/maskTrios/L1BB.jpg","null","",NA,NA,NA,NA,""
"image-keyboard-response",169,282259,"0.0-3.52-2.52","kgjm0ootlyqzgwr",351,"4.csv","","null","resources/images/fishbone.png","null","",NA,NA,NA,NA,""
"image-keyboard-response",170,283785,"0.0-3.53-0.53","kgjm0ootlyqzgwr",351,"4.csv","","1523","resources/trios/L2T1A3.jpg","39","restless",0.3,0.1,0.7,0.88018327274337,"false"
"image-keyboard-response",171,284191,"0.0-3.53-1.53","kgjm0ootlyqzgwr",351,"4.csv","","null","resources/maskTrios/BBA3.jpg","null","",NA,NA,NA,NA,""
"image-keyboard-response",172,285403,"0.0-3.53-2.53","kgjm0ootlyqzgwr",351,"4.csv","","null","resources/images/fishbone.png","null","",NA,NA,NA,NA,""
"image-keyboard-response",173,286226,"0.0-3.54-0.54","kgjm0ootlyqzgwr",351,"4.csv","","820.5999999046326","resources/trios/L2T4A3.jpg","37","restless",0.3,0.1,0.8,0.914202036910332,"false"
"image-keyboard-response",174,286637,"0.0-3.54-1.54","kgjm0ootlyqzgwr",351,"4.csv","","null","resources/maskTrios/L2BB.jpg","null","",NA,NA,NA,NA,""
"image-keyboard-response",175,287848,"0.0-3.54-2.54","kgjm0ootlyqzgwr",351,"4.csv","","null","resources/images/fishbone.png","null","",NA,NA,NA,NA,""
"image-keyboard-response",176,289741,"0.0-3.55-0.55","kgjm0ootlyqzgwr",351,"4.csv","","1891.1999998092651","resources/trios/L2T4A2.jpg","39","restless",0.3,0.1,0.8,0.55986461967485,"true"
"image-keyboard-response",177,290147,"0.0-3.55-1.55","kgjm0ootlyqzgwr",351,"4.csv","","null","resources/maskTrios/BBA2.jpg","null","",NA,NA,NA,NA,""
"image-keyboard-response",178,291370,"0.0-3.55-2.55","kgjm0ootlyqzgwr",351,"4.csv","","null","resources/images/coin2.png","null","",NA,NA,NA,NA,""
"image-keyboard-response",179,292151,"0.0-3.56-0.56","kgjm0ootlyqzgwr",351,"4.csv","","777.9000000953674","resources/trios/L2T4A2.jpg","39","restless",0.3,0.1,0.8,0.807897557336636,"false"
"image-keyboard-response",180,292559,"0.0-3.56-1.56","kgjm0ootlyqzgwr",351,"4.csv","","null","resources/maskTrios/BBA2.jpg","null","",NA,NA,NA,NA,""
"image-keyboard-response",181,293770,"0.0-3.56-2.56","kgjm0ootlyqzgwr",351,"4.csv","","null","resources/images/fishbone.png","null","",NA,NA,NA,NA,""
"image-keyboard-response",182,294406,"0.0-3.57-0.57","kgjm0ootlyqzgwr",351,"4.csv","","634","resources/trios/L2T4A2.jpg","37","restless",0.3,0.1,0.8,0.0925233844635527,"true"
"image-keyboard-response",183,294813,"0.0-3.57-1.57","kgjm0ootlyqzgwr",351,"4.csv","","null","resources/maskTrios/L2BB.jpg","null","",NA,NA,NA,NA,""
"image-keyboard-response",184,296024,"0.0-3.57-2.57","kgjm0ootlyqzgwr",351,"4.csv","","null","resources/images/coin2.png","null","",NA,NA,NA,NA,""
"image-keyboard-response",185,296884,"0.0-3.58-0.58","kgjm0ootlyqzgwr",351,"4.csv","","858.0999999046326","resources/trios/L2T4A2.jpg","37","restless",0.2,0.1,0.8,0.0924307890744303,"true"
"image-keyboard-response",186,297290,"0.0-3.58-1.58","kgjm0ootlyqzgwr",351,"4.csv","","null","resources/maskTrios/L2BB.jpg","null","",NA,NA,NA,NA,""
"image-keyboard-response",187,298503,"0.0-3.58-2.58","kgjm0ootlyqzgwr",351,"4.csv","","null","resources/images/coin2.png","null","",NA,NA,NA,NA,""
"image-keyboard-response",188,299807,"0.0-3.59-0.59","kgjm0ootlyqzgwr",351,"4.csv","","1301.8999996185303","resources/trios/L1T4A2.jpg","37","restless",0.2,0.1,0.8,0.638969604216376,"false"
"image-keyboard-response",189,300212,"0.0-3.59-1.59","kgjm0ootlyqzgwr",351,"4.csv","","null","resources/maskTrios/L1BB.jpg","null","",NA,NA,NA,NA,""
"image-keyboard-response",190,301423,"0.0-3.59-2.59","kgjm0ootlyqzgwr",351,"4.csv","","null","resources/images/fishbone.png","null","",NA,NA,NA,NA,""
"image-keyboard-response",191,302016,"0.0-3.60-0.60","kgjm0ootlyqzgwr",351,"4.csv","","590.9000000953674","resources/trios/L1T1A3.jpg","39","restless",0.3,0.1,0.8,0.880393626223423,"false"
"image-keyboard-response",192,302424,"0.0-3.60-1.60","kgjm0ootlyqzgwr",351,"4.csv","","null","resources/maskTrios/BBA3.jpg","null","",NA,NA,NA,NA,""
"image-keyboard-response",193,303636,"0.0-3.60-2.60","kgjm0ootlyqzgwr",351,"4.csv","","null","resources/images/fishbone.png","null","",NA,NA,NA,NA,""
"image-keyboard-response",194,303948,"0.0-3.61-0.61","kgjm0ootlyqzgwr",351,"4.csv","","310.2999997138977","resources/trios/L2T4A3.jpg","37","restless",0.3,0.1,0.8,0.93094867796391,"false"
"image-keyboard-response",195,304357,"0.0-3.61-1.61","kgjm0ootlyqzgwr",351,"4.csv","","null","resources/maskTrios/L2BB.jpg","null","",NA,NA,NA,NA,""
"image-keyboard-response",196,305569,"0.0-3.61-2.61","kgjm0ootlyqzgwr",351,"4.csv","","null","resources/images/fishbone.png","null","",NA,NA,NA,NA,""
"image-keyboard-response",197,305992,"0.0-3.62-0.62","kgjm0ootlyqzgwr",351,"4.csv","","419.40000009536743","resources/trios/L1T1A2.jpg","37","restless",0.3,0.1,0.8,0.0133746380008652,"true"
"image-keyboard-response",198,306402,"0.0-3.62-1.62","kgjm0ootlyqzgwr",351,"4.csv","","null","resources/maskTrios/L1BB.jpg","null","",NA,NA,NA,NA,""
"image-keyboard-response",199,307612,"0.0-3.62-2.62","kgjm0ootlyqzgwr",351,"4.csv","","null","resources/images/coin2.png","null","",NA,NA,NA,NA,""
"image-keyboard-response",200,308717,"0.0-3.63-0.63","kgjm0ootlyqzgwr",351,"4.csv","","1101.8999996185303","resources/trios/L1T1A3.jpg","37","restless",0.3,0.1,0.8,0.775338471012201,"false"
"image-keyboard-response",201,309136,"0.0-3.63-1.63","kgjm0ootlyqzgwr",351,"4.csv","","null","resources/maskTrios/L1BB.jpg","null","",NA,NA,NA,NA,""
"image-keyboard-response",202,310347,"0.0-3.63-2.63","kgjm0ootlyqzgwr",351,"4.csv","","null","resources/images/fishbone.png","null","",NA,NA,NA,NA,""
"image-keyboard-response",203,310950,"0.0-3.64-0.64","kgjm0ootlyqzgwr",351,"4.csv","","600.6000003814697","resources/trios/L2T4A3.jpg","39","restless",0.3,0.1,0.8,0.335241445591895,"true"
"image-keyboard-response",204,311357,"0.0-3.64-1.64","kgjm0ootlyqzgwr",351,"4.csv","","null","resources/maskTrios/BBA3.jpg","null","",NA,NA,NA,NA,""
"image-keyboard-response",205,312569,"0.0-3.64-2.64","kgjm0ootlyqzgwr",351,"4.csv","","null","resources/images/coin2.png","null","",NA,NA,NA,NA,""
"image-keyboard-response",206,313173,"0.0-3.65-0.65","kgjm0ootlyqzgwr",351,"4.csv","","601.3000001907349","resources/trios/L1T4A3.jpg","39","restless",0.3,0.1,0.8,0.58334288167212,"true"
"image-keyboard-response",207,313579,"0.0-3.65-1.65","kgjm0ootlyqzgwr",351,"4.csv","","null","resources/maskTrios/BBA3.jpg","null","",NA,NA,NA,NA,""
"image-keyboard-response",208,314789,"0.0-3.65-2.65","kgjm0ootlyqzgwr",351,"4.csv","","null","resources/images/coin2.png","null","",NA,NA,NA,NA,""
"image-keyboard-response",209,315572,"0.0-3.66-0.66","kgjm0ootlyqzgwr",351,"4.csv","","780.3999996185303","resources/trios/L2T4A3.jpg","39","restless",0.3,0.1,0.8,0.792089551743113,"true"
"image-keyboard-response",210,315980,"0.0-3.66-1.66","kgjm0ootlyqzgwr",351,"4.csv","","null","resources/maskTrios/BBA3.jpg","null","",NA,NA,NA,NA,""
"image-keyboard-response",211,317189,"0.0-3.66-2.66","kgjm0ootlyqzgwr",351,"4.csv","","null","resources/images/coin2.png","null","",NA,NA,NA,NA,""
"image-keyboard-response",212,317960,"0.0-3.67-0.67","kgjm0ootlyqzgwr",351,"4.csv","","769.4000000953674","resources/trios/L1T1A2.jpg","39","restless",0.4,0.1,0.8,0.704126844668333,"true"
"image-keyboard-response",213,318369,"0.0-3.67-1.67","kgjm0ootlyqzgwr",351,"4.csv","","null","resources/maskTrios/BBA2.jpg","null","",NA,NA,NA,NA,""
"image-keyboard-response",214,319571,"0.0-3.67-2.67","kgjm0ootlyqzgwr",351,"4.csv","","null","resources/images/coin2.png","null","",NA,NA,NA,NA,""
"image-keyboard-response",215,320757,"0.0-3.68-0.68","kgjm0ootlyqzgwr",351,"4.csv","","1183","resources/trios/L1T4A3.jpg","39","restless",0.4,0.2,0.8,0.751798560609337,"true"
"image-keyboard-response",216,321165,"0.0-3.68-1.68","kgjm0ootlyqzgwr",351,"4.csv","","null","resources/maskTrios/BBA3.jpg","null","",NA,NA,NA,NA,""
"image-keyboard-response",217,322370,"0.0-3.68-2.68","kgjm0ootlyqzgwr",351,"4.csv","","null","resources/images/coin2.png","null","",NA,NA,NA,NA,""
"image-keyboard-response",218,323719,"0.0-3.69-0.69","kgjm0ootlyqzgwr",351,"4.csv","","1347","resources/trios/L1T4A2.jpg","39","restless",0.4,0.2,0.8,0.550621561075948,"true"
"image-keyboard-response",219,324136,"0.0-3.69-1.69","kgjm0ootlyqzgwr",351,"4.csv","","null","resources/maskTrios/BBA2.jpg","null","",NA,NA,NA,NA,""
"image-keyboard-response",220,325346,"0.0-3.69-2.69","kgjm0ootlyqzgwr",351,"4.csv","","null","resources/images/coin2.png","null","",NA,NA,NA,NA,""
"image-keyboard-response",221,329889,"0.0-3.70-0.70","kgjm0ootlyqzgwr",351,"4.csv","","4539.89999961853","resources/trios/L1T1A2.jpg","37","restless",0.4,0.2,0.8,0.820579549745349,"false"
"image-keyboard-response",222,330302,"0.0-3.70-1.70","kgjm0ootlyqzgwr",351,"4.csv","","null","resources/maskTrios/L1BB.jpg","null","",NA,NA,NA,NA,""
"image-keyboard-response",223,331512,"0.0-3.70-2.70","kgjm0ootlyqzgwr",351,"4.csv","","null","resources/images/fishbone.png","null","",NA,NA,NA,NA,""
"image-keyboard-response",224,332106,"0.0-3.71-0.71","kgjm0ootlyqzgwr",351,"4.csv","","591.7000002861023","resources/trios/L1T4A2.jpg","39","restless",0.4,0.2,0.8,0.0309023854345793,"true"
"image-keyboard-response",225,332512,"0.0-3.71-1.71","kgjm0ootlyqzgwr",351,"4.csv","","null","resources/maskTrios/BBA2.jpg","null","",NA,NA,NA,NA,""
"image-keyboard-response",226,333715,"0.0-3.71-2.71","kgjm0ootlyqzgwr",351,"4.csv","","null","resources/images/coin2.png","null","",NA,NA,NA,NA,""
"image-keyboard-response",227,334508,"0.0-3.72-0.72","kgjm0ootlyqzgwr",351,"4.csv","","790.5999999046326","resources/trios/L1T1A3.jpg","39","restless",0.4,0.2,0.8,0.367476594449519,"true"
"image-keyboard-response",228,334912,"0.0-3.72-1.72","kgjm0ootlyqzgwr",351,"4.csv","","null","resources/maskTrios/BBA3.jpg","null","",NA,NA,NA,NA,""
"image-keyboard-response",229,336127,"0.0-3.72-2.72","kgjm0ootlyqzgwr",351,"4.csv","","null","resources/images/coin2.png","null","",NA,NA,NA,NA,""
"image-keyboard-response",230,337182,"0.0-3.73-0.73","kgjm0ootlyqzgwr",351,"4.csv","","1051.9000000953674","resources/trios/L1T4A3.jpg","39","restless",0.3,0.2,0.8,0.48316326519526,"true"
"image-keyboard-response",231,337589,"0.0-3.73-1.73","kgjm0ootlyqzgwr",351,"4.csv","","null","resources/maskTrios/BBA3.jpg","null","",NA,NA,NA,NA,""
"image-keyboard-response",232,338803,"0.0-3.73-2.73","kgjm0ootlyqzgwr",351,"4.csv","","null","resources/images/coin2.png","null","",NA,NA,NA,NA,""
"image-keyboard-response",233,340651,"0.0-3.74-0.74","kgjm0ootlyqzgwr",351,"4.csv","","1844.6999998092651","resources/trios/L2T4A2.jpg","39","restless",0.3,0.2,0.8,0.648789095560381,"true"
"image-keyboard-response",234,341056,"0.0-3.74-1.74","kgjm0ootlyqzgwr",351,"4.csv","","null","resources/maskTrios/BBA2.jpg","null","",NA,NA,NA,NA,""
"image-keyboard-response",235,342269,"0.0-3.74-2.74","kgjm0ootlyqzgwr",351,"4.csv","","null","resources/images/coin2.png","null","",NA,NA,NA,NA,""
"image-keyboard-response",236,343405,"0.0-3.75-0.75","kgjm0ootlyqzgwr",351,"4.csv","","1133.8000001907349","resources/trios/L1T4A2.jpg","39","restless",0.3,0.2,0.8,0.468638655855425,"true"
"image-keyboard-response",237,343813,"0.0-3.75-1.75","kgjm0ootlyqzgwr",351,"4.csv","","null","resources/maskTrios/BBA2.jpg","null","",NA,NA,NA,NA,""
"image-keyboard-response",238,345022,"0.0-3.75-2.75","kgjm0ootlyqzgwr",351,"4.csv","","null","resources/images/coin2.png","null","",NA,NA,NA,NA,""
"image-keyboard-response",239,346840,"0.0-3.76-0.76","kgjm0ootlyqzgwr",351,"4.csv","","1816.1000003814697","resources/trios/L1T4A3.jpg","39","restless",0.3,0.2,0.7,0.686371665370208,"true"
"image-keyboard-response",240,347248,"0.0-3.76-1.76","kgjm0ootlyqzgwr",351,"4.csv","","null","resources/maskTrios/BBA3.jpg","null","",NA,NA,NA,NA,""
"image-keyboard-response",241,348456,"0.0-3.76-2.76","kgjm0ootlyqzgwr",351,"4.csv","","null","resources/images/coin2.png","null","",NA,NA,NA,NA,""
"image-keyboard-response",242,349515,"0.0-3.77-0.77","kgjm0ootlyqzgwr",351,"4.csv","","1057.4000000953674","resources/trios/L2T4A2.jpg","39","restless",0.3,0.2,0.7,0.455552038313454,"true"
"image-keyboard-response",243,349922,"0.0-3.77-1.77","kgjm0ootlyqzgwr",351,"4.csv","","null","resources/maskTrios/BBA2.jpg","null","",NA,NA,NA,NA,""
"image-keyboard-response",244,351136,"0.0-3.77-2.77","kgjm0ootlyqzgwr",351,"4.csv","","null","resources/images/coin2.png","null","",NA,NA,NA,NA,""
"image-keyboard-response",245,354148,"0.0-3.78-0.78","kgjm0ootlyqzgwr",351,"4.csv","","3010.199999809265","resources/trios/L2T1A3.jpg","39","restless",0.3,0.2,0.7,0.724373831380282,"false"
"image-keyboard-response",246,354556,"0.0-3.78-1.78","kgjm0ootlyqzgwr",351,"4.csv","","null","resources/maskTrios/BBA3.jpg","null","",NA,NA,NA,NA,""
"image-keyboard-response",247,355769,"0.0-3.78-2.78","kgjm0ootlyqzgwr",351,"4.csv","","null","resources/images/fishbone.png","null","",NA,NA,NA,NA,""
"image-keyboard-response",248,356105,"0.0-3.79-0.79","kgjm0ootlyqzgwr",351,"4.csv","","334","resources/trios/L2T4A3.jpg","37","restless",0.3,0.3,0.6,0.330606270210075,"false"
"image-keyboard-response",249,356512,"0.0-3.79-1.79","kgjm0ootlyqzgwr",351,"4.csv","","null","resources/maskTrios/L2BB.jpg","null","",NA,NA,NA,NA,""
"image-keyboard-response",250,357718,"0.0-3.79-2.79","kgjm0ootlyqzgwr",351,"4.csv","","null","resources/images/fishbone.png","null","",NA,NA,NA,NA,""
"image-keyboard-response",251,358141,"0.0-3.80-0.80","kgjm0ootlyqzgwr",351,"4.csv","","420.90000009536743","resources/trios/L1T1A2.jpg","39","restless",0.3,0.3,0.6,0.7219092256605,"false"
"image-keyboard-response",252,358546,"0.0-3.80-1.80","kgjm0ootlyqzgwr",351,"4.csv","","null","resources/maskTrios/BBA2.jpg","null","",NA,NA,NA,NA,""
"image-keyboard-response",253,359755,"0.0-3.80-2.80","kgjm0ootlyqzgwr",351,"4.csv","","null","resources/images/fishbone.png","null","",NA,NA,NA,NA,""
"image-keyboard-response",254,360161,"0.0-3.81-0.81","kgjm0ootlyqzgwr",351,"4.csv","","403.40000009536743","resources/trios/L2T1A2.jpg","37","restless",0.3,0.3,0.6,0.28536523876609,"true"
"image-keyboard-response",255,360569,"0.0-3.81-1.81","kgjm0ootlyqzgwr",351,"4.csv","","null","resources/maskTrios/L2BB.jpg","null","",NA,NA,NA,NA,""
"image-keyboard-response",256,361779,"0.0-3.81-2.81","kgjm0ootlyqzgwr",351,"4.csv","","null","resources/images/coin2.png","null","",NA,NA,NA,NA,""
"image-keyboard-response",257,362316,"0.0-3.82-0.82","kgjm0ootlyqzgwr",351,"4.csv","","534","resources/trios/L2T1A2.jpg","37","restless",0.3,0.3,0.6,0.738780628791331,"false"
"image-keyboard-response",258,362724,"0.0-3.82-1.82","kgjm0ootlyqzgwr",351,"4.csv","","null","resources/maskTrios/L2BB.jpg","null","",NA,NA,NA,NA,""
"image-keyboard-response",259,363936,"0.0-3.82-2.82","kgjm0ootlyqzgwr",351,"4.csv","","null","resources/images/fishbone.png","null","",NA,NA,NA,NA,""
"image-keyboard-response",260,364192,"0.0-3.83-0.83","kgjm0ootlyqzgwr",351,"4.csv","","253.59999990463257","resources/trios/L1T4A2.jpg","39","restless",0.4,0.3,0.6,0.298866253374706,"true"
"image-keyboard-response",261,364602,"0.0-3.83-1.83","kgjm0ootlyqzgwr",351,"4.csv","","null","resources/maskTrios/BBA2.jpg","null","",NA,NA,NA,NA,""
"image-keyboard-response",262,365812,"0.0-3.83-2.83","kgjm0ootlyqzgwr",351,"4.csv","","null","resources/images/coin2.png","null","",NA,NA,NA,NA,""
"image-keyboard-response",263,366759,"0.0-3.84-0.84","kgjm0ootlyqzgwr",351,"4.csv","","943.9000000953674","resources/trios/L2T1A3.jpg","39","restless",0.5,0.4,0.6,0.128123982786762,"true"
"image-keyboard-response",264,367170,"0.0-3.84-1.84","kgjm0ootlyqzgwr",351,"4.csv","","null","resources/maskTrios/BBA3.jpg","null","",NA,NA,NA,NA,""
"image-keyboard-response",265,368379,"0.0-3.84-2.84","kgjm0ootlyqzgwr",351,"4.csv","","null","resources/images/coin2.png","null","",NA,NA,NA,NA,""
"image-keyboard-response",266,371875,"0.0-3.85-0.85","kgjm0ootlyqzgwr",351,"4.csv","","3493","resources/trios/L2T1A3.jpg","37","restless",0.4,0.4,0.6,0.929773821790246,"false"
"image-keyboard-response",267,372281,"0.0-3.85-1.85","kgjm0ootlyqzgwr",351,"4.csv","","null","resources/maskTrios/L2BB.jpg","null","",NA,NA,NA,NA,""
"image-keyboard-response",268,373492,"0.0-3.85-2.85","kgjm0ootlyqzgwr",351,"4.csv","","null","resources/images/fishbone.png","null","",NA,NA,NA,NA,""
"image-keyboard-response",269,374126,"0.0-3.86-0.86","kgjm0ootlyqzgwr",351,"4.csv","","631.1999998092651","resources/trios/L2T1A3.jpg","39","restless",0.4,0.4,0.6,0.307197737267521,"true"
"image-keyboard-response",270,374534,"0.0-3.86-1.86","kgjm0ootlyqzgwr",351,"4.csv","","null","resources/maskTrios/BBA3.jpg","null","",NA,NA,NA,NA,""
"image-keyboard-response",271,375745,"0.0-3.86-2.86","kgjm0ootlyqzgwr",351,"4.csv","","null","resources/images/coin2.png","null","",NA,NA,NA,NA,""
"image-keyboard-response",272,376882,"0.0-3.87-0.87","kgjm0ootlyqzgwr",351,"4.csv","","1134.4000000953674","resources/trios/L2T4A3.jpg","39","restless",0.4,0.4,0.6,0.96402409379244,"false"
"image-keyboard-response",273,377289,"0.0-3.87-1.87","kgjm0ootlyqzgwr",351,"4.csv","","null","resources/maskTrios/BBA3.jpg","null","",NA,NA,NA,NA,""
"image-keyboard-response",274,378503,"0.0-3.87-2.87","kgjm0ootlyqzgwr",351,"4.csv","","null","resources/images/fishbone.png","null","",NA,NA,NA,NA,""
"image-keyboard-response",275,379528,"0.0-3.88-0.88","kgjm0ootlyqzgwr",351,"4.csv","","1023","resources/trios/L2T1A3.jpg","37","restless",0.4,0.4,0.6,0.90878043128479,"false"
"image-keyboard-response",276,379936,"0.0-3.88-1.88","kgjm0ootlyqzgwr",351,"4.csv","","null","resources/maskTrios/L2BB.jpg","null","",NA,NA,NA,NA,""
"image-keyboard-response",277,381146,"0.0-3.88-2.88","kgjm0ootlyqzgwr",351,"4.csv","","null","resources/images/fishbone.png","null","",NA,NA,NA,NA,""
"image-keyboard-response",278,381974,"0.0-3.89-0.89","kgjm0ootlyqzgwr",351,"4.csv","","825.6000003814697","resources/trios/L2T1A3.jpg","39","restless",0.3,0.4,0.6,0.568658788775046,"true"
"image-keyboard-response",279,382379,"0.0-3.89-1.89","kgjm0ootlyqzgwr",351,"4.csv","","null","resources/maskTrios/BBA3.jpg","null","",NA,NA,NA,NA,""
"image-keyboard-response",280,383589,"0.0-3.89-2.89","kgjm0ootlyqzgwr",351,"4.csv","","null","resources/images/coin2.png","null","",NA,NA,NA,NA,""
"image-keyboard-response",281,384372,"0.0-3.90-0.90","kgjm0ootlyqzgwr",351,"4.csv","","780.0999999046326","resources/trios/L2T1A3.jpg","39","restless",0.3,0.4,0.6,0.644563668341518,"false"
"image-keyboard-response",282,384779,"0.0-3.90-1.90","kgjm0ootlyqzgwr",351,"4.csv","","null","resources/maskTrios/BBA3.jpg","null","",NA,NA,NA,NA,""
"image-keyboard-response",283,385990,"0.0-3.90-2.90","kgjm0ootlyqzgwr",351,"4.csv","","null","resources/images/fishbone.png","null","",NA,NA,NA,NA,""
"image-keyboard-response",284,386472,"0.0-3.91-0.91","kgjm0ootlyqzgwr",351,"4.csv","","479","resources/trios/L1T1A3.jpg","37","restless",0.3,0.4,0.6,0.865082171838767,"false"
"image-keyboard-response",285,386879,"0.0-3.91-1.91","kgjm0ootlyqzgwr",351,"4.csv","","null","resources/maskTrios/L1BB.jpg","null","",NA,NA,NA,NA,""
"image-keyboard-response",286,388089,"0.0-3.91-2.91","kgjm0ootlyqzgwr",351,"4.csv","","null","resources/images/fishbone.png","null","",NA,NA,NA,NA,""
"image-keyboard-response",287,388582,"0.0-3.92-0.92","kgjm0ootlyqzgwr",351,"4.csv","","490.80000019073486","resources/trios/L2T4A2.jpg","37","restless",0.3,0.4,0.6,0.189375198404309,"true"
"image-keyboard-response",288,388988,"0.0-3.92-1.92","kgjm0ootlyqzgwr",351,"4.csv","","null","resources/maskTrios/L2BB.jpg","null","",NA,NA,NA,NA,""
"image-keyboard-response",289,390202,"0.0-3.92-2.92","kgjm0ootlyqzgwr",351,"4.csv","","null","resources/images/coin2.png","null","",NA,NA,NA,NA,""
"image-keyboard-response",290,391150,"0.0-3.93-0.93","kgjm0ootlyqzgwr",351,"4.csv","","945.2000002861023","resources/trios/L2T4A2.jpg","37","restless",0.3,0.4,0.6,0.530224569690913,"false"
"image-keyboard-response",291,391556,"0.0-3.93-1.93","kgjm0ootlyqzgwr",351,"4.csv","","null","resources/maskTrios/L2BB.jpg","null","",NA,NA,NA,NA,""
"image-keyboard-response",292,392769,"0.0-3.93-2.93","kgjm0ootlyqzgwr",351,"4.csv","","null","resources/images/fishbone.png","null","",NA,NA,NA,NA,""
"image-keyboard-response",293,393127,"0.0-3.94-0.94","kgjm0ootlyqzgwr",351,"4.csv","","356","resources/trios/L2T4A2.jpg","39","restless",0.3,0.4,0.6,0.498516721526255,"true"
"image-keyboard-response",294,393536,"0.0-3.94-1.94","kgjm0ootlyqzgwr",351,"4.csv","","null","resources/maskTrios/BBA2.jpg","null","",NA,NA,NA,NA,""
"image-keyboard-response",295,394745,"0.0-3.94-2.94","kgjm0ootlyqzgwr",351,"4.csv","","null","resources/images/coin2.png","null","",NA,NA,NA,NA,""
"image-keyboard-response",296,395691,"0.0-3.95-0.95","kgjm0ootlyqzgwr",351,"4.csv","","943.9000000953674","resources/trios/L1T1A3.jpg","39","restless",0.3,0.4,0.6,0.558551874550851,"true"
"image-keyboard-response",297,396103,"0.0-3.95-1.95","kgjm0ootlyqzgwr",351,"4.csv","","null","resources/maskTrios/BBA3.jpg","null","",NA,NA,NA,NA,""
"image-keyboard-response",298,397312,"0.0-3.95-2.95","kgjm0ootlyqzgwr",351,"4.csv","","null","resources/images/coin2.png","null","",NA,NA,NA,NA,""
"image-keyboard-response",299,397872,"0.0-3.96-0.96","kgjm0ootlyqzgwr",351,"4.csv","","557.2999997138977","resources/trios/L2T1A3.jpg","39","restless",0.3,0.5,0.6,0.72743189233284,"false"
"image-keyboard-response",300,398279,"0.0-3.96-1.96","kgjm0ootlyqzgwr",351,"4.csv","","null","resources/maskTrios/BBA3.jpg","null","",NA,NA,NA,NA,""
"image-keyboard-response",301,399489,"0.0-3.96-2.96","kgjm0ootlyqzgwr",351,"4.csv","","null","resources/images/fishbone.png","null","",NA,NA,NA,NA,""
"image-keyboard-response",302,400538,"0.0-3.97-0.97","kgjm0ootlyqzgwr",351,"4.csv","","1046.8000001907349","resources/trios/L1T1A2.jpg","37","restless",0.3,0.5,0.6,0.389357409138155,"false"
"image-keyboard-response",303,400953,"0.0-3.97-1.97","kgjm0ootlyqzgwr",351,"4.csv","","null","resources/maskTrios/L1BB.jpg","null","",NA,NA,NA,NA,""
"image-keyboard-response",304,402157,"0.0-3.97-2.97","kgjm0ootlyqzgwr",351,"4.csv","","null","resources/images/fishbone.png","null","",NA,NA,NA,NA,""
"image-keyboard-response",305,404150,"0.0-3.98-0.98","kgjm0ootlyqzgwr",351,"4.csv","","1990.9000000953674","resources/trios/L2T1A2.jpg","37","restless",0.3,0.5,0.6,0.294898958342627,"true"
"image-keyboard-response",306,404556,"0.0-3.98-1.98","kgjm0ootlyqzgwr",351,"4.csv","","null","resources/maskTrios/L2BB.jpg","null","",NA,NA,NA,NA,""
"image-keyboard-response",307,405769,"0.0-3.98-2.98","kgjm0ootlyqzgwr",351,"4.csv","","null","resources/images/coin2.png","null","",NA,NA,NA,NA,""
"image-keyboard-response",308,410192,"0.0-3.99-0.99","kgjm0ootlyqzgwr",351,"4.csv","","4420.699999809265","resources/trios/L2T4A3.jpg","37","restless",0.3,0.5,0.6,0.703642542087405,"false"
"image-keyboard-response",309,410602,"0.0-3.99-1.99","kgjm0ootlyqzgwr",351,"4.csv","","null","resources/maskTrios/L2BB.jpg","null","",NA,NA,NA,NA,""
"image-keyboard-response",310,411812,"0.0-3.99-2.99","kgjm0ootlyqzgwr",351,"4.csv","","null","resources/images/fishbone.png","null","",NA,NA,NA,NA,""
"image-keyboard-response",311,412241,"0.0-3.100-0.100","kgjm0ootlyqzgwr",351,"4.csv","","425.90000009536743","resources/trios/L2T4A2.jpg","39","restless",0.3,0.5,0.6,0.0640413885895486,"true"
"image-keyboard-response",312,412646,"0.0-3.100-1.100","kgjm0ootlyqzgwr",351,"4.csv","","null","resources/maskTrios/BBA2.jpg","null","",NA,NA,NA,NA,""
"image-keyboard-response",313,413856,"0.0-3.100-2.100","kgjm0ootlyqzgwr",351,"4.csv","","null","resources/images/coin2.png","null","",NA,NA,NA,NA,""
"image-keyboard-response",314,416173,"0.0-3.101-0.101","kgjm0ootlyqzgwr",351,"4.csv","","2314.5999999046326","resources/trios/L1T1A2.jpg","37","restless",0.3,0.5,0.6,0.768081978108474,"false"
"image-keyboard-response",315,416579,"0.0-3.101-1.101","kgjm0ootlyqzgwr",351,"4.csv","","null","resources/maskTrios/L1BB.jpg","null","",NA,NA,NA,NA,""
"image-keyboard-response",316,417787,"0.0-3.101-2.101","kgjm0ootlyqzgwr",351,"4.csv","","null","resources/images/fishbone.png","null","",NA,NA,NA,NA,""
"image-keyboard-response",317,418171,"0.0-3.102-0.102","kgjm0ootlyqzgwr",351,"4.csv","","382.30000019073486","resources/trios/L1T4A2.jpg","39","restless",0.3,0.5,0.6,0.84469249768683,"false"
"image-keyboard-response",318,418579,"0.0-3.102-1.102","kgjm0ootlyqzgwr",351,"4.csv","","null","resources/maskTrios/BBA2.jpg","null","",NA,NA,NA,NA,""
"image-keyboard-response",319,419789,"0.0-3.102-2.102","kgjm0ootlyqzgwr",351,"4.csv","","null","resources/images/fishbone.png","null","",NA,NA,NA,NA,""
"image-keyboard-response",320,420158,"0.0-3.103-0.103","kgjm0ootlyqzgwr",351,"4.csv","","367.2999997138977","resources/trios/L2T1A3.jpg","37","restless",0.3,0.5,0.7,0.757240871085736,"false"
"image-keyboard-response",321,420569,"0.0-3.103-1.103","kgjm0ootlyqzgwr",351,"4.csv","","null","resources/maskTrios/L2BB.jpg","null","",NA,NA,NA,NA,""
"image-keyboard-response",322,421786,"0.0-3.103-2.103","kgjm0ootlyqzgwr",351,"4.csv","","null","resources/images/fishbone.png","null","",NA,NA,NA,NA,""
"image-keyboard-response",323,422138,"0.0-3.104-0.104","kgjm0ootlyqzgwr",351,"4.csv","","348.5","resources/trios/L2T1A2.jpg","37","restless",0.3,0.5,0.7,0.619760712183975,"false"
"image-keyboard-response",324,422545,"0.0-3.104-1.104","kgjm0ootlyqzgwr",351,"4.csv","","null","resources/maskTrios/L2BB.jpg","null","",NA,NA,NA,NA,""
"image-keyboard-response",325,423755,"0.0-3.104-2.104","kgjm0ootlyqzgwr",351,"4.csv","","null","resources/images/fishbone.png","null","",NA,NA,NA,NA,""
"image-keyboard-response",326,424071,"0.0-3.105-0.105","kgjm0ootlyqzgwr",351,"4.csv","","314.09999990463257","resources/trios/L2T4A2.jpg","37","restless",0.3,0.5,0.6,0.19169391552284,"true"
"image-keyboard-response",327,424479,"0.0-3.105-1.105","kgjm0ootlyqzgwr",351,"4.csv","","null","resources/maskTrios/L2BB.jpg","null","",NA,NA,NA,NA,""
"image-keyboard-response",328,425688,"0.0-3.105-2.105","kgjm0ootlyqzgwr",351,"4.csv","","null","resources/images/coin2.png","null","",NA,NA,NA,NA,""
"image-keyboard-response",329,425740,"0.0-3.106-0.106","kgjm0ootlyqzgwr",351,"4.csv","","50.200000286102295","resources/trios/L1T4A3.jpg","39","restless",0.3,0.5,0.6,0.0538604422464519,"true"
"image-keyboard-response",330,426145,"0.0-3.106-1.106","kgjm0ootlyqzgwr",351,"4.csv","","null","resources/maskTrios/BBA3.jpg","null","",NA,NA,NA,NA,""
"image-keyboard-response",331,427355,"0.0-3.106-2.106","kgjm0ootlyqzgwr",351,"4.csv","","null","resources/images/coin2.png","null","",NA,NA,NA,NA,""
"image-keyboard-response",332,427926,"0.0-3.107-0.107","kgjm0ootlyqzgwr",351,"4.csv","","569","resources/trios/L1T4A2.jpg","37","restless",0.3,0.5,0.6,0.343676860970282,"false"
"image-keyboard-response",333,428335,"0.0-3.107-1.107","kgjm0ootlyqzgwr",351,"4.csv","","null","resources/maskTrios/L1BB.jpg","null","",NA,NA,NA,NA,""
"image-keyboard-response",334,429545,"0.0-3.107-2.107","kgjm0ootlyqzgwr",351,"4.csv","","null","resources/images/fishbone.png","null","",NA,NA,NA,NA,""
"image-keyboard-response",335,430038,"0.0-3.108-0.108","kgjm0ootlyqzgwr",351,"4.csv","","490.7999997138977","resources/trios/L2T4A2.jpg","39","restless",0.3,0.5,0.6,0.000620482725173455,"true"
"image-keyboard-response",336,430445,"0.0-3.108-1.108","kgjm0ootlyqzgwr",351,"4.csv","","null","resources/maskTrios/BBA2.jpg","null","",NA,NA,NA,NA,""
"image-keyboard-response",337,431655,"0.0-3.108-2.108","kgjm0ootlyqzgwr",351,"4.csv","","null","resources/images/coin2.png","null","",NA,NA,NA,NA,""
"image-keyboard-response",338,432681,"0.0-3.109-0.109","kgjm0ootlyqzgwr",351,"4.csv","","1024.2000002861023","resources/trios/L1T1A2.jpg","39","restless",0.3,0.5,0.6,0.298751727449974,"true"
"image-keyboard-response",339,433088,"0.0-3.109-1.109","kgjm0ootlyqzgwr",351,"4.csv","","null","resources/maskTrios/BBA2.jpg","null","",NA,NA,NA,NA,""
"image-keyboard-response",340,434301,"0.0-3.109-2.109","kgjm0ootlyqzgwr",351,"4.csv","","null","resources/images/coin2.png","null","",NA,NA,NA,NA,""
"image-keyboard-response",341,435223,"0.0-3.110-0.110","kgjm0ootlyqzgwr",351,"4.csv","","919.2000002861023","resources/trios/L1T4A3.jpg","39","restless",0.3,0.5,0.6,0.767836763617511,"false"
"image-keyboard-response",342,435635,"0.0-3.110-1.110","kgjm0ootlyqzgwr",351,"4.csv","","null","resources/maskTrios/BBA3.jpg","null","",NA,NA,NA,NA,""
"image-keyboard-response",343,436846,"0.0-3.110-2.110","kgjm0ootlyqzgwr",351,"4.csv","","null","resources/images/fishbone.png","null","",NA,NA,NA,NA,""
"image-keyboard-response",344,437148,"0.0-3.111-0.111","kgjm0ootlyqzgwr",351,"4.csv","","300.6000003814697","resources/trios/L2T4A2.jpg","37","restless",0.4,0.5,0.6,0.775492752202309,"false"
"image-keyboard-response",345,437555,"0.0-3.111-1.111","kgjm0ootlyqzgwr",351,"4.csv","","null","resources/maskTrios/L2BB.jpg","null","",NA,NA,NA,NA,""
"image-keyboard-response",346,438769,"0.0-3.111-2.111","kgjm0ootlyqzgwr",351,"4.csv","","null","resources/images/fishbone.png","null","",NA,NA,NA,NA,""
"image-keyboard-response",347,440059,"0.0-3.112-0.112","kgjm0ootlyqzgwr",351,"4.csv","","1287.8000001907349","resources/trios/L2T1A2.jpg","39","restless",0.4,0.5,0.6,0.159477355622447,"true"
"image-keyboard-response",348,440468,"0.0-3.112-1.112","kgjm0ootlyqzgwr",351,"4.csv","","null","resources/maskTrios/BBA2.jpg","null","",NA,NA,NA,NA,""
"image-keyboard-response",349,441678,"0.0-3.112-2.112","kgjm0ootlyqzgwr",351,"4.csv","","null","resources/images/coin2.png","null","",NA,NA,NA,NA,""
"image-keyboard-response",350,442614,"0.0-3.113-0.113","kgjm0ootlyqzgwr",351,"4.csv","","934.1999998092651","resources/trios/L2T1A2.jpg","39","restless",0.3,0.5,0.6,0.619829214314099,"false"
"image-keyboard-response",351,443019,"0.0-3.113-1.113","kgjm0ootlyqzgwr",351,"4.csv","","null","resources/maskTrios/BBA2.jpg","null","",NA,NA,NA,NA,""
"image-keyboard-response",352,444235,"0.0-3.113-2.113","kgjm0ootlyqzgwr",351,"4.csv","","null","resources/images/fishbone.png","null","",NA,NA,NA,NA,""
"image-keyboard-response",353,444590,"0.0-3.114-0.114","kgjm0ootlyqzgwr",351,"4.csv","","353.40000009536743","resources/trios/L2T4A2.jpg","37","restless",0.3,0.5,0.6,0.373858617424047,"false"
"image-keyboard-response",354,444994,"0.0-3.114-1.114","kgjm0ootlyqzgwr",351,"4.csv","","null","resources/maskTrios/L2BB.jpg","null","",NA,NA,NA,NA,""
"image-keyboard-response",355,446201,"0.0-3.114-2.114","kgjm0ootlyqzgwr",351,"4.csv","","null","resources/images/fishbone.png","null","",NA,NA,NA,NA,""
"image-keyboard-response",356,446638,"0.0-3.115-0.115","kgjm0ootlyqzgwr",351,"4.csv","","434.40000009536743","resources/trios/L1T1A3.jpg","37","restless",0.3,0.5,0.6,0.889952775496552,"false"
"image-keyboard-response",357,447045,"0.0-3.115-1.115","kgjm0ootlyqzgwr",351,"4.csv","","null","resources/maskTrios/L1BB.jpg","null","",NA,NA,NA,NA,""
"image-keyboard-response",358,448255,"0.0-3.115-2.115","kgjm0ootlyqzgwr",351,"4.csv","","null","resources/images/fishbone.png","null","",NA,NA,NA,NA,""
"image-keyboard-response",359,448957,"0.0-3.116-0.116","kgjm0ootlyqzgwr",351,"4.csv","","700.0999999046326","resources/trios/L1T1A2.jpg","37","restless",0.3,0.5,0.6,0.722702751487709,"false"
"image-keyboard-response",360,449368,"0.0-3.116-1.116","kgjm0ootlyqzgwr",351,"4.csv","","null","resources/maskTrios/L1BB.jpg","null","",NA,NA,NA,NA,""
"image-keyboard-response",361,450578,"0.0-3.116-2.116","kgjm0ootlyqzgwr",351,"4.csv","","null","resources/images/fishbone.png","null","",NA,NA,NA,NA,""
"image-keyboard-response",362,451605,"0.0-3.117-0.117","kgjm0ootlyqzgwr",351,"4.csv","","1025.3000001907349","resources/trios/L1T1A2.jpg","39","restless",0.3,0.5,0.6,0.67624359963194,"false"
"image-keyboard-response",363,452011,"0.0-3.117-1.117","kgjm0ootlyqzgwr",351,"4.csv","","null","resources/maskTrios/BBA2.jpg","null","",NA,NA,NA,NA,""
"image-keyboard-response",364,453220,"0.0-3.117-2.117","kgjm0ootlyqzgwr",351,"4.csv","","null","resources/images/fishbone.png","null","",NA,NA,NA,NA,""
"image-keyboard-response",365,453973,"0.0-3.118-0.118","kgjm0ootlyqzgwr",351,"4.csv","","750.5","resources/trios/L2T4A3.jpg","37","restless",0.3,0.5,0.6,0.79091131216025,"false"
"image-keyboard-response",366,454378,"0.0-3.118-1.118","kgjm0ootlyqzgwr",351,"4.csv","","null","resources/maskTrios/L2BB.jpg","null","",NA,NA,NA,NA,""
"image-keyboard-response",367,455588,"0.0-3.118-2.118","kgjm0ootlyqzgwr",351,"4.csv","","null","resources/images/fishbone.png","null","",NA,NA,NA,NA,""
"image-keyboard-response",368,474773,"0.0-3.119-0.119","kgjm0ootlyqzgwr",351,"4.csv","","19182.300000190735","resources/trios/L2T4A3.jpg","39","restless",0.3,0.5,0.6,0.351904643774725,"true"
"image-keyboard-response",369,475178,"0.0-3.119-1.119","kgjm0ootlyqzgwr",351,"4.csv","","null","resources/maskTrios/BBA3.jpg","null","",NA,NA,NA,NA,""
"image-keyboard-response",370,476388,"0.0-3.119-2.119","kgjm0ootlyqzgwr",351,"4.csv","","null","resources/images/coin2.png","null","",NA,NA,NA,NA,""
"image-keyboard-response",371,478707,"0.0-3.120-0.120","kgjm0ootlyqzgwr",351,"4.csv","","2315.5999999046326","resources/trios/L1T1A3.jpg","37","restless",0.3,0.6,0.6,0.713992319170246,"false"
"image-keyboard-response",372,479111,"0.0-3.120-1.120","kgjm0ootlyqzgwr",351,"4.csv","","null","resources/maskTrios/L1BB.jpg","null","",NA,NA,NA,NA,""
"image-keyboard-response",373,480319,"0.0-3.120-2.120","kgjm0ootlyqzgwr",351,"4.csv","","null","resources/images/fishbone.png","null","",NA,NA,NA,NA,""
"image-keyboard-response",374,481771,"0.0-3.121-0.121","kgjm0ootlyqzgwr",351,"4.csv","","1449.6000003814697","resources/trios/L1T4A2.jpg","37","restless",0.3,0.6,0.6,0.704941058016913,"false"
"image-keyboard-response",375,482178,"0.0-3.121-1.121","kgjm0ootlyqzgwr",351,"4.csv","","null","resources/maskTrios/L1BB.jpg","null","",NA,NA,NA,NA,""
"image-keyboard-response",376,483388,"0.0-3.121-2.121","kgjm0ootlyqzgwr",351,"4.csv","","null","resources/images/fishbone.png","null","",NA,NA,NA,NA,""
"image-keyboard-response",377,483891,"0.0-3.122-0.122","kgjm0ootlyqzgwr",351,"4.csv","","500.2999997138977","resources/trios/L2T1A2.jpg","39","restless",0.3,0.6,0.6,0.257231602307155,"true"
"image-keyboard-response",378,484301,"0.0-3.122-1.122","kgjm0ootlyqzgwr",351,"4.csv","","null","resources/maskTrios/BBA2.jpg","null","",NA,NA,NA,NA,""
"image-keyboard-response",379,485512,"0.0-3.122-2.122","kgjm0ootlyqzgwr",351,"4.csv","","null","resources/images/coin2.png","null","",NA,NA,NA,NA,""
"image-keyboard-response",380,486126,"0.0-3.123-0.123","kgjm0ootlyqzgwr",351,"4.csv","","612.4000000953674","resources/trios/L2T1A3.jpg","39","restless",0.2,0.6,0.6,0.969662234200187,"false"
"image-keyboard-response",381,486535,"0.0-3.123-1.123","kgjm0ootlyqzgwr",351,"4.csv","","null","resources/maskTrios/BBA3.jpg","null","",NA,NA,NA,NA,""
"image-keyboard-response",382,487745,"0.0-3.123-2.123","kgjm0ootlyqzgwr",351,"4.csv","","null","resources/images/fishbone.png","null","",NA,NA,NA,NA,""
"image-keyboard-response",383,488204,"0.0-3.124-0.124","kgjm0ootlyqzgwr",351,"4.csv","","457.19999980926514","resources/trios/L2T4A3.jpg","37","restless",0.2,0.6,0.6,0.322626620282854,"false"
"image-keyboard-response",384,488612,"0.0-3.124-1.124","kgjm0ootlyqzgwr",351,"4.csv","","null","resources/maskTrios/L2BB.jpg","null","",NA,NA,NA,NA,""
"image-keyboard-response",385,489821,"0.0-3.124-2.124","kgjm0ootlyqzgwr",351,"4.csv","","null","resources/images/fishbone.png","null","",NA,NA,NA,NA,""
"image-keyboard-response",386,490071,"0.0-3.125-0.125","kgjm0ootlyqzgwr",351,"4.csv","","247.59999990463257","resources/trios/L2T1A3.jpg","37","restless",0.2,0.6,0.6,0.27938077485681,"false"
"image-keyboard-response",387,490478,"0.0-3.125-1.125","kgjm0ootlyqzgwr",351,"4.csv","","null","resources/maskTrios/L2BB.jpg","null","",NA,NA,NA,NA,""
"image-keyboard-response",388,491688,"0.0-3.125-2.125","kgjm0ootlyqzgwr",351,"4.csv","","null","resources/images/fishbone.png","null","",NA,NA,NA,NA,""
"image-keyboard-response",389,492037,"0.0-3.126-0.126","kgjm0ootlyqzgwr",351,"4.csv","","347.09999990463257","resources/trios/L2T4A2.jpg","37","restless",0.2,0.6,0.6,0.848357460228553,"false"
"image-keyboard-response",390,492444,"0.0-3.126-1.126","kgjm0ootlyqzgwr",351,"4.csv","","null","resources/maskTrios/L2BB.jpg","null","",NA,NA,NA,NA,""
"image-keyboard-response",391,493655,"0.0-3.126-2.126","kgjm0ootlyqzgwr",351,"4.csv","","null","resources/images/fishbone.png","null","",NA,NA,NA,NA,""
"image-keyboard-response",392,494114,"0.0-3.127-0.127","kgjm0ootlyqzgwr",351,"4.csv","","457.30000019073486","resources/trios/L1T1A2.jpg","39","restless",0.3,0.6,0.6,0.852840482513549,"false"
"image-keyboard-response",393,494522,"0.0-3.127-1.127","kgjm0ootlyqzgwr",351,"4.csv","","null","resources/maskTrios/BBA2.jpg","null","",NA,NA,NA,NA,""
"image-keyboard-response",394,495735,"0.0-3.127-2.127","kgjm0ootlyqzgwr",351,"4.csv","","null","resources/images/fishbone.png","null","",NA,NA,NA,NA,""
"image-keyboard-response",395,496058,"0.0-3.128-0.128","kgjm0ootlyqzgwr",351,"4.csv","","320.40000009536743","resources/trios/L1T1A3.jpg","37","restless",0.3,0.6,0.6,0.785648263615844,"false"
"image-keyboard-response",396,496469,"0.0-3.128-1.128","kgjm0ootlyqzgwr",351,"4.csv","","null","resources/maskTrios/L1BB.jpg","null","",NA,NA,NA,NA,""
"image-keyboard-response",397,497678,"0.0-3.128-2.128","kgjm0ootlyqzgwr",351,"4.csv","","null","resources/images/fishbone.png","null","",NA,NA,NA,NA,""
"image-keyboard-response",398,498072,"0.0-3.129-0.129","kgjm0ootlyqzgwr",351,"4.csv","","391.59999990463257","resources/trios/L2T1A2.jpg","37","restless",0.3,0.6,0.6,0.803709979043997,"false"
"image-keyboard-response",399,498479,"0.0-3.129-1.129","kgjm0ootlyqzgwr",351,"4.csv","","null","resources/maskTrios/L2BB.jpg","null","",NA,NA,NA,NA,""
"image-keyboard-response",400,499688,"0.0-3.129-2.129","kgjm0ootlyqzgwr",351,"4.csv","","null","resources/images/fishbone.png","null","",NA,NA,NA,NA,""
"image-keyboard-response",401,500014,"0.0-3.130-0.130","kgjm0ootlyqzgwr",351,"4.csv","","324.19999980926514","resources/trios/L2T4A3.jpg","37","restless",0.3,0.6,0.6,0.0967218036216313,"true"
"image-keyboard-response",402,500419,"0.0-3.130-1.130","kgjm0ootlyqzgwr",351,"4.csv","","null","resources/maskTrios/L2BB.jpg","null","",NA,NA,NA,NA,""
"image-keyboard-response",403,501627,"0.0-3.130-2.130","kgjm0ootlyqzgwr",351,"4.csv","","null","resources/images/coin2.png","null","",NA,NA,NA,NA,""
"image-keyboard-response",404,502347,"0.0-3.131-0.131","kgjm0ootlyqzgwr",351,"4.csv","","717.9000000953674","resources/trios/L2T4A2.jpg","37","restless",0.3,0.5,0.5,0.693619622164621,"false"
"image-keyboard-response",405,502755,"0.0-3.131-1.131","kgjm0ootlyqzgwr",351,"4.csv","","null","resources/maskTrios/L2BB.jpg","null","",NA,NA,NA,NA,""
"image-keyboard-response",406,503968,"0.0-3.131-2.131","kgjm0ootlyqzgwr",351,"4.csv","","null","resources/images/fishbone.png","null","",NA,NA,NA,NA,""
"image-keyboard-response",407,504848,"0.0-3.132-0.132","kgjm0ootlyqzgwr",351,"4.csv","","878","resources/trios/L2T4A2.jpg","39","restless",0.3,0.5,0.5,0.913745994037584,"false"
"image-keyboard-response",408,505255,"0.0-3.132-1.132","kgjm0ootlyqzgwr",351,"4.csv","","null","resources/maskTrios/BBA2.jpg","null","",NA,NA,NA,NA,""
"image-keyboard-response",409,506468,"0.0-3.132-2.132","kgjm0ootlyqzgwr",351,"4.csv","","null","resources/images/fishbone.png","null","",NA,NA,NA,NA,""
"image-keyboard-response",410,506858,"0.0-3.133-0.133","kgjm0ootlyqzgwr",351,"4.csv","","387.3999996185303","resources/trios/L1T1A2.jpg","37","restless",0.3,0.5,0.5,0.281249387912575,"true"
"image-keyboard-response",411,507268,"0.0-3.133-1.133","kgjm0ootlyqzgwr",351,"4.csv","","null","resources/maskTrios/L1BB.jpg","null","",NA,NA,NA,NA,""
"image-keyboard-response",412,508479,"0.0-3.133-2.133","kgjm0ootlyqzgwr",351,"4.csv","","null","resources/images/coin2.png","null","",NA,NA,NA,NA,""
"image-keyboard-response",413,508905,"0.0-3.134-0.134","kgjm0ootlyqzgwr",351,"4.csv","","423.80000019073486","resources/trios/L2T4A2.jpg","39","restless",0.3,0.5,0.5,0.6566342549359,"false"
"image-keyboard-response",414,509312,"0.0-3.134-1.134","kgjm0ootlyqzgwr",351,"4.csv","","null","resources/maskTrios/BBA2.jpg","null","",NA,NA,NA,NA,""
"image-keyboard-response",415,510522,"0.0-3.134-2.134","kgjm0ootlyqzgwr",351,"4.csv","","null","resources/images/fishbone.png","null","",NA,NA,NA,NA,""
"image-keyboard-response",416,510892,"0.0-3.135-0.135","kgjm0ootlyqzgwr",351,"4.csv","","367","resources/trios/L2T1A2.jpg","37","restless",0.3,0.5,0.5,0.115473907433517,"true"
"image-keyboard-response",417,511301,"0.0-3.135-1.135","kgjm0ootlyqzgwr",351,"4.csv","","null","resources/maskTrios/L2BB.jpg","null","",NA,NA,NA,NA,""
"image-keyboard-response",418,512511,"0.0-3.135-2.135","kgjm0ootlyqzgwr",351,"4.csv","","null","resources/images/coin2.png","null","",NA,NA,NA,NA,""
"image-keyboard-response",419,512982,"0.0-3.136-0.136","kgjm0ootlyqzgwr",351,"4.csv","","468.40000009536743","resources/trios/L1T1A2.jpg","37","restless",0.3,0.5,0.5,0.386407626204286,"false"
"image-keyboard-response",420,513388,"0.0-3.136-1.136","kgjm0ootlyqzgwr",351,"4.csv","","null","resources/maskTrios/L1BB.jpg","null","",NA,NA,NA,NA,""
"image-keyboard-response",421,514601,"0.0-3.136-2.136","kgjm0ootlyqzgwr",351,"4.csv","","null","resources/images/fishbone.png","null","",NA,NA,NA,NA,""
"image-keyboard-response",422,533859,"0.0-3.137-0.137","kgjm0ootlyqzgwr",351,"4.csv","","19254.39999961853","resources/trios/L2T4A3.jpg","37","restless",0.4,0.5,0.5,0.473954151792185,"false"
"image-keyboard-response",423,534268,"0.0-3.137-1.137","kgjm0ootlyqzgwr",351,"4.csv","","null","resources/maskTrios/L2BB.jpg","null","",NA,NA,NA,NA,""
"image-keyboard-response",424,535477,"0.0-3.137-2.137","kgjm0ootlyqzgwr",351,"4.csv","","null","resources/images/fishbone.png","null","",NA,NA,NA,NA,""
"image-keyboard-response",425,536381,"0.0-3.138-0.138","kgjm0ootlyqzgwr",351,"4.csv","","900.9000000953674","resources/trios/L1T1A2.jpg","39","restless",0.4,0.5,0.5,0.165502565570633,"true"
"image-keyboard-response",426,536788,"0.0-3.138-1.138","kgjm0ootlyqzgwr",351,"4.csv","","null","resources/maskTrios/BBA2.jpg","null","",NA,NA,NA,NA,""
"image-keyboard-response",427,538001,"0.0-3.138-2.138","kgjm0ootlyqzgwr",351,"4.csv","","null","resources/images/coin2.png","null","",NA,NA,NA,NA,""
"image-keyboard-response",428,539556,"0.0-3.139-0.139","kgjm0ootlyqzgwr",351,"4.csv","","1553.6000003814697","resources/trios/L1T1A2.jpg","39","restless",0.4,0.6,0.5,0.950619541547003,"false"
"image-keyboard-response",429,539967,"0.0-3.139-1.139","kgjm0ootlyqzgwr",351,"4.csv","","null","resources/maskTrios/BBA2.jpg","null","",NA,NA,NA,NA,""
"image-keyboard-response",430,541177,"0.0-3.139-2.139","kgjm0ootlyqzgwr",351,"4.csv","","null","resources/images/fishbone.png","null","",NA,NA,NA,NA,""
"image-keyboard-response",431,543425,"0.0-3.140-0.140","kgjm0ootlyqzgwr",351,"4.csv","","2245.8999996185303","resources/trios/L2T4A3.jpg","37","restless",0.3,0.6,0.5,0.197692904102324,"true"
"image-keyboard-response",432,543834,"0.0-3.140-1.140","kgjm0ootlyqzgwr",351,"4.csv","","null","resources/maskTrios/L2BB.jpg","null","",NA,NA,NA,NA,""
"image-keyboard-response",433,545044,"0.0-3.140-2.140","kgjm0ootlyqzgwr",351,"4.csv","","null","resources/images/coin2.png","null","",NA,NA,NA,NA,""
"image-keyboard-response",434,545960,"0.0-3.141-0.141","kgjm0ootlyqzgwr",351,"4.csv","","913.7000002861023","resources/trios/L2T4A3.jpg","37","restless",0.3,0.6,0.5,0.91753926966048,"false"
"image-keyboard-response",435,546367,"0.0-3.141-1.141","kgjm0ootlyqzgwr",351,"4.csv","","null","resources/maskTrios/L2BB.jpg","null","",NA,NA,NA,NA,""
"image-keyboard-response",436,547577,"0.0-3.141-2.141","kgjm0ootlyqzgwr",351,"4.csv","","null","resources/images/fishbone.png","null","",NA,NA,NA,NA,""
"image-keyboard-response",437,548014,"0.0-3.142-0.142","kgjm0ootlyqzgwr",351,"4.csv","","433.80000019073486","resources/trios/L2T4A3.jpg","39","restless",0.3,0.6,0.4,0.618770704519246,"false"
"image-keyboard-response",438,548420,"0.0-3.142-1.142","kgjm0ootlyqzgwr",351,"4.csv","","null","resources/maskTrios/BBA3.jpg","null","",NA,NA,NA,NA,""
"image-keyboard-response",439,549634,"0.0-3.142-2.142","kgjm0ootlyqzgwr",351,"4.csv","","null","resources/images/fishbone.png","null","",NA,NA,NA,NA,""
"image-keyboard-response",440,550057,"0.0-3.143-0.143","kgjm0ootlyqzgwr",351,"4.csv","","420.7999997138977","resources/trios/L1T4A3.jpg","39","restless",0.4,0.6,0.4,0.796958125246735,"false"
"image-keyboard-response",441,550467,"0.0-3.143-1.143","kgjm0ootlyqzgwr",351,"4.csv","","null","resources/maskTrios/BBA3.jpg","null","",NA,NA,NA,NA,""
"image-keyboard-response",442,551677,"0.0-3.143-2.143","kgjm0ootlyqzgwr",351,"4.csv","","null","resources/images/fishbone.png","null","",NA,NA,NA,NA,""
"image-keyboard-response",443,552048,"0.0-3.144-0.144","kgjm0ootlyqzgwr",351,"4.csv","","368.2999997138977","resources/trios/L2T4A2.jpg","37","restless",0.4,0.6,0.4,0.0625422566610188,"true"
"image-keyboard-response",444,552454,"0.0-3.144-1.144","kgjm0ootlyqzgwr",351,"4.csv","","null","resources/maskTrios/L2BB.jpg","null","",NA,NA,NA,NA,""
"image-keyboard-response",445,553667,"0.0-3.144-2.144","kgjm0ootlyqzgwr",351,"4.csv","","null","resources/images/coin2.png","null","",NA,NA,NA,NA,""
"image-keyboard-response",446,554303,"0.0-3.145-0.145","kgjm0ootlyqzgwr",351,"4.csv","","633.8999996185303","resources/trios/L2T4A3.jpg","37","restless",0.4,0.6,0.4,0.350146993293071,"true"
"image-keyboard-response",447,554712,"0.0-3.145-1.145","kgjm0ootlyqzgwr",351,"4.csv","","null","resources/maskTrios/L2BB.jpg","null","",NA,NA,NA,NA,""
"image-keyboard-response",448,555920,"0.0-3.145-2.145","kgjm0ootlyqzgwr",351,"4.csv","","null","resources/images/coin2.png","null","",NA,NA,NA,NA,""
"image-keyboard-response",449,556614,"0.0-3.146-0.146","kgjm0ootlyqzgwr",351,"4.csv","","692.1999998092651","resources/trios/L1T4A2.jpg","37","restless",0.3,0.6,0.4,0.29840912452897,"true"
"image-keyboard-response",450,557020,"0.0-3.146-1.146","kgjm0ootlyqzgwr",351,"4.csv","","null","resources/maskTrios/L1BB.jpg","null","",NA,NA,NA,NA,""
"image-keyboard-response",451,558233,"0.0-3.146-2.146","kgjm0ootlyqzgwr",351,"4.csv","","null","resources/images/coin2.png","null","",NA,NA,NA,NA,""
"image-keyboard-response",452,562013,"0.0-3.147-0.147","kgjm0ootlyqzgwr",351,"4.csv","","3778.199999809265","resources/trios/L1T4A2.jpg","37","restless",0.3,0.6,0.4,0.214151782125867,"true"
"image-keyboard-response",453,562420,"0.0-3.147-1.147","kgjm0ootlyqzgwr",351,"4.csv","","null","resources/maskTrios/L1BB.jpg","null","",NA,NA,NA,NA,""
"image-keyboard-response",454,563634,"0.0-3.147-2.147","kgjm0ootlyqzgwr",351,"4.csv","","null","resources/images/coin2.png","null","",NA,NA,NA,NA,""
"image-keyboard-response",455,566691,"0.0-3.148-0.148","kgjm0ootlyqzgwr",351,"4.csv","","3054.5","resources/trios/L2T1A3.jpg","37","restless",0.3,0.6,0.4,0.010288313903468,"true"
"image-keyboard-response",456,567101,"0.0-3.148-1.148","kgjm0ootlyqzgwr",351,"4.csv","","null","resources/maskTrios/L2BB.jpg","null","",NA,NA,NA,NA,""
"image-keyboard-response",457,568310,"0.0-3.148-2.148","kgjm0ootlyqzgwr",351,"4.csv","","null","resources/images/coin2.png","null","",NA,NA,NA,NA,""
"image-keyboard-response",458,570362,"0.0-3.149-0.149","kgjm0ootlyqzgwr",351,"4.csv","","2049.0999999046326","resources/trios/L2T4A2.jpg","37","restless",0.3,0.6,0.4,0.231008123635754,"true"
"image-keyboard-response",459,570769,"0.0-3.149-1.149","kgjm0ootlyqzgwr",351,"4.csv","","null","resources/maskTrios/L2BB.jpg","null","",NA,NA,NA,NA,""
"image-keyboard-response",460,571977,"0.0-3.149-2.149","kgjm0ootlyqzgwr",351,"4.csv","","null","resources/images/coin2.png","null","",NA,NA,NA,NA,""
"image-keyboard-response",461,574080,"0.0-3.150-0.150","kgjm0ootlyqzgwr",351,"4.csv","","2100.8999996185303","resources/trios/L1T4A3.jpg","37","restless",0.3,0.6,0.4,0.214526535454013,"true"
"image-keyboard-response",462,574489,"0.0-3.150-1.150","kgjm0ootlyqzgwr",351,"4.csv","","null","resources/maskTrios/L1BB.jpg","null","",NA,NA,NA,NA,""
"image-keyboard-response",463,575701,"0.0-3.150-2.150","kgjm0ootlyqzgwr",351,"4.csv","","null","resources/images/coin2.png","null","",NA,NA,NA,NA,""
"image-keyboard-response",464,669523,"0.0-3.151-0.151","kgjm0ootlyqzgwr",351,"4.csv","","93819.59999990463","resources/trios/L1T4A3.jpg","37","restless",0.3,0.6,0.4,0.234976543147102,"true"
"image-keyboard-response",465,669933,"0.0-3.151-1.151","kgjm0ootlyqzgwr",351,"4.csv","","null","resources/maskTrios/L1BB.jpg","null","",NA,NA,NA,NA,""
"image-keyboard-response",466,671142,"0.0-3.151-2.151","kgjm0ootlyqzgwr",351,"4.csv","","null","resources/images/coin2.png","null","",NA,NA,NA,NA,""
"image-keyboard-response",467,672955,"0.0-3.152-0.152","kgjm0ootlyqzgwr",351,"4.csv","","1810.6999998092651","resources/trios/L1T4A2.jpg","37","restless",0.3,0.6,0.4,0.88418423887924,"false"
"image-keyboard-response",468,673366,"0.0-3.152-1.152","kgjm0ootlyqzgwr",351,"4.csv","","null","resources/maskTrios/L1BB.jpg","null","",NA,NA,NA,NA,""
"image-keyboard-response",469,674576,"0.0-3.152-2.152","kgjm0ootlyqzgwr",351,"4.csv","","null","resources/images/fishbone.png","null","",NA,NA,NA,NA,""
"image-keyboard-response",470,675313,"0.0-3.153-0.153","kgjm0ootlyqzgwr",351,"4.csv","","734.9000000953674","resources/trios/L1T4A2.jpg","39","restless",0.3,0.6,0.4,0.37528904945119,"true"
"image-keyboard-response",471,675720,"0.0-3.153-1.153","kgjm0ootlyqzgwr",351,"4.csv","","null","resources/maskTrios/BBA2.jpg","null","",NA,NA,NA,NA,""
"image-keyboard-response",472,676932,"0.0-3.153-2.153","kgjm0ootlyqzgwr",351,"4.csv","","null","resources/images/coin2.png","null","",NA,NA,NA,NA,""
"image-keyboard-response",473,679802,"0.0-3.154-0.154","kgjm0ootlyqzgwr",351,"4.csv","","2867.4000000953674","resources/trios/L2T4A2.jpg","39","restless",0.3,0.6,0.4,0.404378854329483,"false"
"image-keyboard-response",474,680209,"0.0-3.154-1.154","kgjm0ootlyqzgwr",351,"4.csv","","null","resources/maskTrios/BBA2.jpg","null","",NA,NA,NA,NA,""
"image-keyboard-response",475,681420,"0.0-3.154-2.154","kgjm0ootlyqzgwr",351,"4.csv","","null","resources/images/fishbone.png","null","",NA,NA,NA,NA,""
"image-keyboard-response",476,682202,"0.0-3.155-0.155","kgjm0ootlyqzgwr",351,"4.csv","","779.0999999046326","resources/trios/L1T1A2.jpg","37","restless",0.3,0.7,0.4,0.74174472318708,"false"
"image-keyboard-response",477,682609,"0.0-3.155-1.155","kgjm0ootlyqzgwr",351,"4.csv","","null","resources/maskTrios/L1BB.jpg","null","",NA,NA,NA,NA,""
"image-keyboard-response",478,683819,"0.0-3.155-2.155","kgjm0ootlyqzgwr",351,"4.csv","","null","resources/images/fishbone.png","null","",NA,NA,NA,NA,""
"image-keyboard-response",479,684523,"0.0-3.156-0.156","kgjm0ootlyqzgwr",351,"4.csv","","701","resources/trios/L1T4A3.jpg","39","restless",0.3,0.6,0.4,0.352765674808134,"true"
"image-keyboard-response",480,684933,"0.0-3.156-1.156","kgjm0ootlyqzgwr",351,"4.csv","","null","resources/maskTrios/BBA3.jpg","null","",NA,NA,NA,NA,""
"image-keyboard-response",481,686142,"0.0-3.156-2.156","kgjm0ootlyqzgwr",351,"4.csv","","null","resources/images/coin2.png","null","",NA,NA,NA,NA,""
"image-keyboard-response",482,686738,"0.0-3.157-0.157","kgjm0ootlyqzgwr",351,"4.csv","","593.5","resources/trios/L2T1A3.jpg","39","restless",0.3,0.6,0.4,0.208377687861042,"true"
"image-keyboard-response",483,687142,"0.0-3.157-1.157","kgjm0ootlyqzgwr",351,"4.csv","","null","resources/maskTrios/BBA3.jpg","null","",NA,NA,NA,NA,""
"image-keyboard-response",484,688352,"0.0-3.157-2.157","kgjm0ootlyqzgwr",351,"4.csv","","null","resources/images/coin2.png","null","",NA,NA,NA,NA,""
"image-keyboard-response",485,689078,"0.0-3.158-0.158","kgjm0ootlyqzgwr",351,"4.csv","","723.6999998092651","resources/trios/L2T4A3.jpg","39","restless",0.3,0.6,0.4,0.479776364490617,"false"
"image-keyboard-response",486,689486,"0.0-3.158-1.158","kgjm0ootlyqzgwr",351,"4.csv","","null","resources/maskTrios/BBA3.jpg","null","",NA,NA,NA,NA,""
"image-keyboard-response",487,690699,"0.0-3.158-2.158","kgjm0ootlyqzgwr",351,"4.csv","","null","resources/images/fishbone.png","null","",NA,NA,NA,NA,""
"image-keyboard-response",488,691503,"0.0-3.159-0.159","kgjm0ootlyqzgwr",351,"4.csv","","801.8000001907349","resources/trios/L2T4A2.jpg","37","restless",0.4,0.6,0.4,0.899597065443513,"false"
"image-keyboard-response",489,691909,"0.0-3.159-1.159","kgjm0ootlyqzgwr",351,"4.csv","","null","resources/maskTrios/L2BB.jpg","null","",NA,NA,NA,NA,""
"image-keyboard-response",490,693133,"0.0-3.159-2.159","kgjm0ootlyqzgwr",351,"4.csv","","null","resources/images/fishbone.png","null","",NA,NA,NA,NA,""
"image-keyboard-response",491,693812,"0.0-3.160-0.160","kgjm0ootlyqzgwr",351,"4.csv","","677.4000000953674","resources/trios/L2T1A3.jpg","38","restless",0.4,0.6,0.4,0.849855539140284,"false"
"image-keyboard-response",492,694219,"0.0-3.160-1.160","kgjm0ootlyqzgwr",351,"4.csv","","null","resources/maskTrios/BT1B.jpg","null","",NA,NA,NA,NA,""
"image-keyboard-response",493,695432,"0.0-3.160-2.160","kgjm0ootlyqzgwr",351,"4.csv","","null","resources/images/fishbone.png","null","",NA,NA,NA,NA,""
"image-keyboard-response",494,699371,"0.0-3.161-0.161","kgjm0ootlyqzgwr",351,"4.csv","","3936.5999999046326","resources/trios/L2T1A3.jpg","37","restless",0.4,0.6,0.4,0.88401281000007,"false"
"image-keyboard-response",495,699776,"0.0-3.161-1.161","kgjm0ootlyqzgwr",351,"4.csv","","null","resources/maskTrios/L2BB.jpg","null","",NA,NA,NA,NA,""
"image-keyboard-response",496,700985,"0.0-3.161-2.161","kgjm0ootlyqzgwr",351,"4.csv","","null","resources/images/fishbone.png","null","",NA,NA,NA,NA,""
"image-keyboard-response",497,701471,"0.0-3.162-0.162","kgjm0ootlyqzgwr",351,"4.csv","","483.5","resources/trios/L1T1A2.jpg","39","restless",0.4,0.6,0.4,0.411533225510454,"false"
"image-keyboard-response",498,701876,"0.0-3.162-1.162","kgjm0ootlyqzgwr",351,"4.csv","","null","resources/maskTrios/BBA2.jpg","null","",NA,NA,NA,NA,""
"image-keyboard-response",499,703087,"0.0-3.162-2.162","kgjm0ootlyqzgwr",351,"4.csv","","null","resources/images/fishbone.png","null","",NA,NA,NA,NA,""
"image-keyboard-response",500,703612,"0.0-3.163-0.163","kgjm0ootlyqzgwr",351,"4.csv","","522","resources/trios/L2T4A2.jpg","38","restless",0.4,0.6,0.4,0.594316872769235,"true"
"image-keyboard-response",501,704019,"0.0-3.163-1.163","kgjm0ootlyqzgwr",351,"4.csv","","null","resources/maskTrios/BT4B.jpg","null","",NA,NA,NA,NA,""
"image-keyboard-response",502,705232,"0.0-3.163-2.163","kgjm0ootlyqzgwr",351,"4.csv","","null","resources/images/coin2.png","null","",NA,NA,NA,NA,""
"image-keyboard-response",503,709380,"0.0-3.164-0.164","kgjm0ootlyqzgwr",351,"4.csv","","4145.900000095367","resources/trios/L2T1A3.jpg","38","restless",0.4,0.6,0.4,0.937431185338021,"false"
"image-keyboard-response",504,709789,"0.0-3.164-1.164","kgjm0ootlyqzgwr",351,"4.csv","","null","resources/maskTrios/BT1B.jpg","null","",NA,NA,NA,NA,""
"image-keyboard-response",505,710999,"0.0-3.164-2.164","kgjm0ootlyqzgwr",351,"4.csv","","null","resources/images/fishbone.png","null","",NA,NA,NA,NA,""
"image-keyboard-response",506,711956,"0.0-3.165-0.165","kgjm0ootlyqzgwr",351,"4.csv","","954.6000003814697","resources/trios/L2T4A2.jpg","37","restless",0.4,0.6,0.4,0.714321731199834,"false"
"image-keyboard-response",507,712365,"0.0-3.165-1.165","kgjm0ootlyqzgwr",351,"4.csv","","null","resources/maskTrios/L2BB.jpg","null","",NA,NA,NA,NA,""
"image-keyboard-response",508,713576,"0.0-3.165-2.165","kgjm0ootlyqzgwr",351,"4.csv","","null","resources/images/fishbone.png","null","",NA,NA,NA,NA,""
"image-keyboard-response",509,713912,"0.0-3.166-0.166","kgjm0ootlyqzgwr",351,"4.csv","","331.90000009536743","resources/trios/L1T1A2.jpg","39","restless",0.3,0.6,0.4,0.64653628911277,"false"
"image-keyboard-response",510,714317,"0.0-3.166-1.166","kgjm0ootlyqzgwr",351,"4.csv","","null","resources/maskTrios/BBA2.jpg","null","",NA,NA,NA,NA,""
"image-keyboard-response",511,715532,"0.0-3.166-2.166","kgjm0ootlyqzgwr",351,"4.csv","","null","resources/images/fishbone.png","null","",NA,NA,NA,NA,""
"image-keyboard-response",512,716221,"0.0-3.167-0.167","kgjm0ootlyqzgwr",351,"4.csv","","687.0999999046326","resources/trios/L2T1A2.jpg","38","restless",0.3,0.6,0.4,0.17869621327426,"true"
"image-keyboard-response",513,716633,"0.0-3.167-1.167","kgjm0ootlyqzgwr",351,"4.csv","","null","resources/maskTrios/BT1B.jpg","null","",NA,NA,NA,NA,""
"image-keyboard-response",514,717855,"0.0-3.167-2.167","kgjm0ootlyqzgwr",351,"4.csv","","null","resources/images/coin2.png","null","",NA,NA,NA,NA,""
"image-keyboard-response",515,721611,"0.0-3.168-0.168","kgjm0ootlyqzgwr",351,"4.csv","","3753.3999996185303","resources/trios/L1T4A2.jpg","37","restless",0.3,0.6,0.4,0.00256956950955378,"true"
"image-keyboard-response",516,722018,"0.0-3.168-1.168","kgjm0ootlyqzgwr",351,"4.csv","","null","resources/maskTrios/L1BB.jpg","null","",NA,NA,NA,NA,""
"image-keyboard-response",517,723232,"0.0-3.168-2.168","kgjm0ootlyqzgwr",351,"4.csv","","null","resources/images/coin2.png","null","",NA,NA,NA,NA,""
"image-keyboard-response",518,724045,"0.0-3.169-0.169","kgjm0ootlyqzgwr",351,"4.csv","","810.4000000953674","resources/trios/L1T1A2.jpg","38","restless",0.3,0.6,0.4,0.0285114520989216,"true"
"image-keyboard-response",519,724453,"0.0-3.169-1.169","kgjm0ootlyqzgwr",351,"4.csv","","null","resources/maskTrios/BT1B.jpg","null","",NA,NA,NA,NA,""
"image-keyboard-response",520,725665,"0.0-3.169-2.169","kgjm0ootlyqzgwr",351,"4.csv","","null","resources/images/coin2.png","null","",NA,NA,NA,NA,""
"image-keyboard-response",521,727690,"0.0-3.170-0.170","kgjm0ootlyqzgwr",351,"4.csv","","2022.0999999046326","resources/trios/L2T4A3.jpg","39","restless",0.3,0.6,0.4,0.532587419689054,"false"
"image-keyboard-response",522,728099,"0.0-3.170-1.170","kgjm0ootlyqzgwr",351,"4.csv","","null","resources/maskTrios/BBA3.jpg","null","",NA,NA,NA,NA,""
"image-keyboard-response",523,729309,"0.0-3.170-2.170","kgjm0ootlyqzgwr",351,"4.csv","","null","resources/images/fishbone.png","null","",NA,NA,NA,NA,""
"image-keyboard-response",524,731571,"0.0-3.171-0.171","kgjm0ootlyqzgwr",351,"4.csv","","2259.5999999046326","resources/trios/L2T1A3.jpg","38","restless",0.3,0.6,0.4,0.113714739396003,"true"
"image-keyboard-response",525,731976,"0.0-3.171-1.171","kgjm0ootlyqzgwr",351,"4.csv","","null","resources/maskTrios/BT1B.jpg","null","",NA,NA,NA,NA,""
"image-keyboard-response",526,733186,"0.0-3.171-2.171","kgjm0ootlyqzgwr",351,"4.csv","","null","resources/images/coin2.png","null","",NA,NA,NA,NA,""
"image-keyboard-response",527,734638,"0.0-3.172-0.172","kgjm0ootlyqzgwr",351,"4.csv","","1449.7999997138977","resources/trios/L2T1A3.jpg","38","restless",0.3,0.6,0.4,0.414772828415974,"true"
"image-keyboard-response",528,735042,"0.0-3.172-1.172","kgjm0ootlyqzgwr",351,"4.csv","","null","resources/maskTrios/BT1B.jpg","null","",NA,NA,NA,NA,""
"image-keyboard-response",529,736252,"0.0-3.172-2.172","kgjm0ootlyqzgwr",351,"4.csv","","null","resources/images/coin2.png","null","",NA,NA,NA,NA,""
"image-keyboard-response",530,737080,"0.0-3.173-0.173","kgjm0ootlyqzgwr",351,"4.csv","","824.8000001907349","resources/trios/L2T4A2.jpg","37","restless",0.3,0.6,0.4,0.356002154267298,"false"
"image-keyboard-response",531,737486,"0.0-3.173-1.173","kgjm0ootlyqzgwr",351,"4.csv","","null","resources/maskTrios/L2BB.jpg","null","",NA,NA,NA,NA,""
"image-keyboard-response",532,738689,"0.0-3.173-2.173","kgjm0ootlyqzgwr",351,"4.csv","","null","resources/images/fishbone.png","null","",NA,NA,NA,NA,""
"image-keyboard-response",533,739668,"0.0-3.174-0.174","kgjm0ootlyqzgwr",351,"4.csv","","976.7999997138977","resources/trios/L2T4A3.jpg","38","restless",0.3,0.6,0.4,0.2149284984083,"true"
"image-keyboard-response",534,740076,"0.0-3.174-1.174","kgjm0ootlyqzgwr",351,"4.csv","","null","resources/maskTrios/BT4B.jpg","null","",NA,NA,NA,NA,""
"image-keyboard-response",535,741288,"0.0-3.174-2.174","kgjm0ootlyqzgwr",351,"4.csv","","null","resources/images/coin2.png","null","",NA,NA,NA,NA,""
"image-keyboard-response",536,742047,"0.0-3.175-0.175","kgjm0ootlyqzgwr",351,"4.csv","","756.3000001907349","resources/trios/L2T4A2.jpg","38","restless",0.3,0.6,0.4,0.512039077204724,"true"
"image-keyboard-response",537,742453,"0.0-3.175-1.175","kgjm0ootlyqzgwr",351,"4.csv","","null","resources/maskTrios/BT4B.jpg","null","",NA,NA,NA,NA,""
"image-keyboard-response",538,743666,"0.0-3.175-2.175","kgjm0ootlyqzgwr",351,"4.csv","","null","resources/images/coin2.png","null","",NA,NA,NA,NA,""
"image-keyboard-response",539,746812,"0.0-3.176-0.176","kgjm0ootlyqzgwr",351,"4.csv","","3143.4000000953674","resources/trios/L1T4A3.jpg","38","restless",0.4,0.6,0.5,0.0394871851059715,"true"
"image-keyboard-response",540,747219,"0.0-3.176-1.176","kgjm0ootlyqzgwr",351,"4.csv","","null","resources/maskTrios/BT4B.jpg","null","",NA,NA,NA,NA,""
"image-keyboard-response",541,748432,"0.0-3.176-2.176","kgjm0ootlyqzgwr",351,"4.csv","","null","resources/images/coin2.png","null","",NA,NA,NA,NA,""
"image-keyboard-response",542,749969,"0.0-3.177-0.177","kgjm0ootlyqzgwr",351,"4.csv","","1534.2000002861023","resources/trios/L1T1A3.jpg","38","restless",0.4,0.6,0.5,0.509959911622409,"true"
"image-keyboard-response",543,750384,"0.0-3.177-1.177","kgjm0ootlyqzgwr",351,"4.csv","","null","resources/maskTrios/BT1B.jpg","null","",NA,NA,NA,NA,""
"image-keyboard-response",544,751598,"0.0-3.177-2.177","kgjm0ootlyqzgwr",351,"4.csv","","null","resources/images/coin2.png","null","",NA,NA,NA,NA,""
"image-keyboard-response",545,752790,"0.0-3.178-0.178","kgjm0ootlyqzgwr",351,"4.csv","","1189.5","resources/trios/L1T4A2.jpg","38","restless",0.4,0.6,0.5,0.083813041335506,"true"
"image-keyboard-response",546,753200,"0.0-3.178-1.178","kgjm0ootlyqzgwr",351,"4.csv","","null","resources/maskTrios/BT4B.jpg","null","",NA,NA,NA,NA,""
"image-keyboard-response",547,754409,"0.0-3.178-2.178","kgjm0ootlyqzgwr",351,"4.csv","","null","resources/images/coin2.png","null","",NA,NA,NA,NA,""
"image-keyboard-response",548,756911,"0.0-3.179-0.179","kgjm0ootlyqzgwr",351,"4.csv","","2498.4000000953674","resources/trios/L2T4A2.jpg","37","restless",0.4,0.5,0.5,0.828556943785164,"false"
"image-keyboard-response",549,757319,"0.0-3.179-1.179","kgjm0ootlyqzgwr",351,"4.csv","","null","resources/maskTrios/L2BB.jpg","null","",NA,NA,NA,NA,""
"image-keyboard-response",550,758522,"0.0-3.179-2.179","kgjm0ootlyqzgwr",351,"4.csv","","null","resources/images/fishbone.png","null","",NA,NA,NA,NA,""
"image-keyboard-response",551,758968,"0.0-3.180-0.180","kgjm0ootlyqzgwr",351,"4.csv","","444.09999990463257","resources/trios/L2T4A2.jpg","38","restless",0.4,0.5,0.5,0.911359874923859,"false"
"image-keyboard-response",552,759375,"0.0-3.180-1.180","kgjm0ootlyqzgwr",351,"4.csv","","null","resources/maskTrios/BT4B.jpg","null","",NA,NA,NA,NA,""
"image-keyboard-response",553,760586,"0.0-3.180-2.180","kgjm0ootlyqzgwr",351,"4.csv","","null","resources/images/fishbone.png","null","",NA,NA,NA,NA,""
"image-keyboard-response",554,761355,"0.0-3.181-0.181","kgjm0ootlyqzgwr",351,"4.csv","","767.6000003814697","resources/trios/L2T1A3.jpg","37","restless",0.4,0.5,0.5,0.351570177523187,"true"
"image-keyboard-response",555,761765,"0.0-3.181-1.181","kgjm0ootlyqzgwr",351,"4.csv","","null","resources/maskTrios/L2BB.jpg","null","",NA,NA,NA,NA,""
"image-keyboard-response",556,762976,"0.0-3.181-2.181","kgjm0ootlyqzgwr",351,"4.csv","","null","resources/images/coin2.png","null","",NA,NA,NA,NA,""
"image-keyboard-response",557,763880,"0.0-3.182-0.182","kgjm0ootlyqzgwr",351,"4.csv","","901.3000001907349","resources/trios/L2T4A2.jpg","38","restless",0.4,0.6,0.5,0.527300893937796,"true"
"image-keyboard-response",558,764285,"0.0-3.182-1.182","kgjm0ootlyqzgwr",351,"4.csv","","null","resources/maskTrios/BT4B.jpg","null","",NA,NA,NA,NA,""
"image-keyboard-response",559,765499,"0.0-3.182-2.182","kgjm0ootlyqzgwr",351,"4.csv","","null","resources/images/coin2.png","null","",NA,NA,NA,NA,""
"image-keyboard-response",560,766288,"0.0-3.183-0.183","kgjm0ootlyqzgwr",351,"4.csv","","786.9000000953674","resources/trios/L1T1A3.jpg","38","restless",0.4,0.6,0.5,0.635309516443451,"false"
"image-keyboard-response",561,766699,"0.0-3.183-1.183","kgjm0ootlyqzgwr",351,"4.csv","","null","resources/maskTrios/BT1B.jpg","null","",NA,NA,NA,NA,""
"image-keyboard-response",562,767910,"0.0-3.183-2.183","kgjm0ootlyqzgwr",351,"4.csv","","null","resources/images/fishbone.png","null","",NA,NA,NA,NA,""
"image-keyboard-response",563,768589,"0.0-3.184-0.184","kgjm0ootlyqzgwr",351,"4.csv","","676.5999999046326","resources/trios/L2T4A3.jpg","37","restless",0.4,0.6,0.5,0.506176201984756,"false"
"image-keyboard-response",564,768998,"0.0-3.184-1.184","kgjm0ootlyqzgwr",351,"4.csv","","null","resources/maskTrios/L2BB.jpg","null","",NA,NA,NA,NA,""
"image-keyboard-response",565,770209,"0.0-3.184-2.184","kgjm0ootlyqzgwr",351,"4.csv","","null","resources/images/fishbone.png","null","",NA,NA,NA,NA,""
"image-keyboard-response",566,771320,"0.0-3.185-0.185","kgjm0ootlyqzgwr",351,"4.csv","","1109.3999996185303","resources/trios/L1T1A3.jpg","38","restless",0.4,0.6,0.5,0.492730097789776,"true"
"image-keyboard-response",567,771732,"0.0-3.185-1.185","kgjm0ootlyqzgwr",351,"4.csv","","null","resources/maskTrios/BT1B.jpg","null","",NA,NA,NA,NA,""
"image-keyboard-response",568,772943,"0.0-3.185-2.185","kgjm0ootlyqzgwr",351,"4.csv","","null","resources/images/coin2.png","null","",NA,NA,NA,NA,""
"image-keyboard-response",569,773801,"0.0-3.186-0.186","kgjm0ootlyqzgwr",351,"4.csv","","855.8000001907349","resources/trios/L1T1A3.jpg","38","restless",0.4,0.7,0.4,0.228526474100505,"true"
"image-keyboard-response",570,774209,"0.0-3.186-1.186","kgjm0ootlyqzgwr",351,"4.csv","","null","resources/maskTrios/BT1B.jpg","null","",NA,NA,NA,NA,""
"image-keyboard-response",571,775419,"0.0-3.186-2.186","kgjm0ootlyqzgwr",351,"4.csv","","null","resources/images/coin2.png","null","",NA,NA,NA,NA,""
"image-keyboard-response",572,823913,"0.0-3.187-0.187","kgjm0ootlyqzgwr",351,"4.csv","","48491.7999997139","resources/trios/L2T4A3.jpg","38","restless",0.5,0.7,0.4,0.98965338755858,"false"
"image-keyboard-response",573,824318,"0.0-3.187-1.187","kgjm0ootlyqzgwr",351,"4.csv","","null","resources/maskTrios/BT4B.jpg","null","",NA,NA,NA,NA,""
"image-keyboard-response",574,825532,"0.0-3.187-2.187","kgjm0ootlyqzgwr",351,"4.csv","","null","resources/images/fishbone.png","null","",NA,NA,NA,NA,""
"image-keyboard-response",575,826544,"0.0-3.188-0.188","kgjm0ootlyqzgwr",351,"4.csv","","1009.5","resources/trios/L1T1A3.jpg","38","restless",0.5,0.7,0.4,0.193115894946374,"true"
"image-keyboard-response",576,826948,"0.0-3.188-1.188","kgjm0ootlyqzgwr",351,"4.csv","","null","resources/maskTrios/BT1B.jpg","null","",NA,NA,NA,NA,""
"image-keyboard-response",577,828151,"0.0-3.188-2.188","kgjm0ootlyqzgwr",351,"4.csv","","null","resources/images/coin2.png","null","",NA,NA,NA,NA,""
"image-keyboard-response",578,829077,"0.0-3.189-0.189","kgjm0ootlyqzgwr",351,"4.csv","","923.5","resources/trios/L1T4A3.jpg","37","restless",0.5,0.7,0.4,0.164895187795021,"true"
"image-keyboard-response",579,829484,"0.0-3.189-1.189","kgjm0ootlyqzgwr",351,"4.csv","","null","resources/maskTrios/L1BB.jpg","null","",NA,NA,NA,NA,""
"image-keyboard-response",580,830698,"0.0-3.189-2.189","kgjm0ootlyqzgwr",351,"4.csv","","null","resources/images/coin2.png","null","",NA,NA,NA,NA,""
"image-keyboard-response",581,831302,"0.0-3.190-0.190","kgjm0ootlyqzgwr",351,"4.csv","","601.7999997138977","resources/trios/L2T1A3.jpg","38","restless",0.5,0.8,0.4,0.790433186100218,"true"
"image-keyboard-response",582,831710,"0.0-3.190-1.190","kgjm0ootlyqzgwr",351,"4.csv","","null","resources/maskTrios/BT1B.jpg","null","",NA,NA,NA,NA,""
"image-keyboard-response",583,832918,"0.0-3.190-2.190","kgjm0ootlyqzgwr",351,"4.csv","","null","resources/images/coin2.png","null","",NA,NA,NA,NA,""
"image-keyboard-response",584,833567,"0.0-3.191-0.191","kgjm0ootlyqzgwr",351,"4.csv","","646.6999998092651","resources/trios/L1T4A2.jpg","37","restless",0.5,0.8,0.4,0.723037996235624,"false"
"image-keyboard-response",585,833977,"0.0-3.191-1.191","kgjm0ootlyqzgwr",351,"4.csv","","null","resources/maskTrios/L1BB.jpg","null","",NA,NA,NA,NA,""
"image-keyboard-response",586,835184,"0.0-3.191-2.191","kgjm0ootlyqzgwr",351,"4.csv","","null","resources/images/fishbone.png","null","",NA,NA,NA,NA,""
"image-keyboard-response",587,835578,"0.0-3.192-0.192","kgjm0ootlyqzgwr",351,"4.csv","","391.7999997138977","resources/trios/L2T4A3.jpg","38","restless",0.5,0.8,0.4,0.997706503736123,"false"
"image-keyboard-response",588,835984,"0.0-3.192-1.192","kgjm0ootlyqzgwr",351,"4.csv","","null","resources/maskTrios/BT4B.jpg","null","",NA,NA,NA,NA,""
"image-keyboard-response",589,837198,"0.0-3.192-2.192","kgjm0ootlyqzgwr",351,"4.csv","","null","resources/images/fishbone.png","null","",NA,NA,NA,NA,""
"image-keyboard-response",590,838678,"0.0-3.193-0.193","kgjm0ootlyqzgwr",351,"4.csv","","1477.1999998092651","resources/trios/L1T1A3.jpg","39","restless",0.5,0.8,0.4,0.0727355040976727,"true"
"image-keyboard-response",591,839085,"0.0-3.193-1.193","kgjm0ootlyqzgwr",351,"4.csv","","null","resources/maskTrios/BBA3.jpg","null","",NA,NA,NA,NA,""
"image-keyboard-response",592,840297,"0.0-3.193-2.193","kgjm0ootlyqzgwr",351,"4.csv","","null","resources/images/coin2.png","null","",NA,NA,NA,NA,""
"image-keyboard-response",593,840944,"0.0-3.194-0.194","kgjm0ootlyqzgwr",351,"4.csv","","644.3000001907349","resources/trios/L1T4A3.jpg","38","restless",0.5,0.8,0.4,0.211616891453599,"true"
"image-keyboard-response",594,841349,"0.0-3.194-1.194","kgjm0ootlyqzgwr",351,"4.csv","","null","resources/maskTrios/BT4B.jpg","null","",NA,NA,NA,NA,""
"image-keyboard-response",595,842564,"0.0-3.194-2.194","kgjm0ootlyqzgwr",351,"4.csv","","null","resources/images/coin2.png","null","",NA,NA,NA,NA,""
"image-keyboard-response",596,843569,"0.0-3.195-0.195","kgjm0ootlyqzgwr",351,"4.csv","","1002.1999998092651","resources/trios/L2T1A2.jpg","38","restless",0.5,0.8,0.4,0.486353599425316,"true"
"image-keyboard-response",597,843974,"0.0-3.195-1.195","kgjm0ootlyqzgwr",351,"4.csv","","null","resources/maskTrios/BT1B.jpg","null","",NA,NA,NA,NA,""
"image-keyboard-response",598,845184,"0.0-3.195-2.195","kgjm0ootlyqzgwr",351,"4.csv","","null","resources/images/coin2.png","null","",NA,NA,NA,NA,""
"image-keyboard-response",599,846412,"0.0-3.196-0.196","kgjm0ootlyqzgwr",351,"4.csv","","1225.2000002861023","resources/trios/L1T4A3.jpg","38","restless",0.6,0.8,0.4,0.078791664998439,"true"
"image-keyboard-response",600,846818,"0.0-3.196-1.196","kgjm0ootlyqzgwr",351,"4.csv","","null","resources/maskTrios/BT4B.jpg","null","",NA,NA,NA,NA,""
"image-keyboard-response",601,848031,"0.0-3.196-2.196","kgjm0ootlyqzgwr",351,"4.csv","","null","resources/images/coin2.png","null","",NA,NA,NA,NA,""
"image-keyboard-response",602,849144,"0.0-3.197-0.197","kgjm0ootlyqzgwr",351,"4.csv","","1110.8999996185303","resources/trios/L1T4A3.jpg","38","restless",0.6,0.7,0.4,0.0278890260732036,"true"
"image-keyboard-response",603,849551,"0.0-3.197-1.197","kgjm0ootlyqzgwr",351,"4.csv","","null","resources/maskTrios/BT4B.jpg","null","",NA,NA,NA,NA,""
"image-keyboard-response",604,850760,"0.0-3.197-2.197","kgjm0ootlyqzgwr",351,"4.csv","","null","resources/images/coin2.png","null","",NA,NA,NA,NA,""
"image-keyboard-response",605,851696,"0.0-3.198-0.198","kgjm0ootlyqzgwr",351,"4.csv","","932.8000001907349","resources/trios/L2T1A2.jpg","38","restless",0.7,0.7,0.4,0.52626709707129,"true"
"image-keyboard-response",606,852115,"0.0-3.198-1.198","kgjm0ootlyqzgwr",351,"4.csv","","null","resources/maskTrios/BT1B.jpg","null","",NA,NA,NA,NA,""
"image-keyboard-response",607,853331,"0.0-3.198-2.198","kgjm0ootlyqzgwr",351,"4.csv","","null","resources/images/coin2.png","null","",NA,NA,NA,NA,""
"image-keyboard-response",608,855477,"0.0-3.199-0.199","kgjm0ootlyqzgwr",351,"4.csv","","2143.800000190735","resources/trios/L2T4A3.jpg","38","restless",0.7,0.7,0.5,0.896370648672779,"false"
"image-keyboard-response",609,855885,"0.0-3.199-1.199","kgjm0ootlyqzgwr",351,"4.csv","","null","resources/maskTrios/BT4B.jpg","null","",NA,NA,NA,NA,""
"image-keyboard-response",610,857097,"0.0-3.199-2.199","kgjm0ootlyqzgwr",351,"4.csv","","null","resources/images/fishbone.png","null","",NA,NA,NA,NA,""
"image-keyboard-response",611,858535,"0.0-3.200-0.200","kgjm0ootlyqzgwr",351,"4.csv","","1435","resources/trios/L1T1A3.jpg","38","restless",0.7,0.7,0.5,0.922423167465477,"false"
"image-keyboard-response",612,858941,"0.0-3.200-1.200","kgjm0ootlyqzgwr",351,"4.csv","","null","resources/maskTrios/BT1B.jpg","null","",NA,NA,NA,NA,""
