"trial_type","trial_index","time_elapsed","internal_node_id","subject","participantCode","walkNumber","success","rt","stimulus","key_press","test_part","leftProb","midProb","rightProb","generatedNum","correct"
"pavlovia",0,966,"0.0-0.0","wl8mqz8bee2bqfa",980,"12.csv","","","","","",NA,NA,NA,NA,""
"fullscreen",1,8741,"0.0-1.0","wl8mqz8bee2bqfa",980,"12.csv","true","","","","",NA,NA,NA,NA,""
"html-keyboard-response",2,27040,"0.0-2.0-0.0","wl8mqz8bee2bqfa",980,"12.csv","","18295.100000023842","<p><font size='6'>Arrrgh!</p></font><p>Can you be the best pirate? Try to find lots of gold! But beware, some islands have more gold than others, and over time, the island with the most gold may change. Can YOU figure it out? </p><font size='6'>GOOD LUCK, CAPTAIN!!!</font><p>Press any key to begin</p>","32","",NA,NA,NA,NA,""
"image-keyboard-response",3,30053,"0.0-2.0-1.0","wl8mqz8bee2bqfa",980,"12.csv","","null","resources/image_sets/111.png","null","",NA,NA,NA,NA,""
"image-keyboard-response",4,33760,"0.0-2.0-2.0","wl8mqz8bee2bqfa",980,"12.csv","","3705.099999964237","resources/image_sets/left_highlight.png","37","",NA,NA,NA,NA,""
"image-keyboard-response",5,36057,"0.0-2.0-3.0","wl8mqz8bee2bqfa",980,"12.csv","","2295.599999964237","resources/image_sets/mid_highlight.png","38","",NA,NA,NA,NA,""
"image-keyboard-response",6,37655,"0.0-2.0-4.0","wl8mqz8bee2bqfa",980,"12.csv","","1596.800000011921","resources/image_sets/right_highlight.png","39","",NA,NA,NA,NA,""
"image-keyboard-response",7,43136,"0.0-2.0-5.0","wl8mqz8bee2bqfa",980,"12.csv","","5480","resources/image_sets/111.png","13","",NA,NA,NA,NA,""
"image-keyboard-response",8,45480,"0.0-2.0-6.0","wl8mqz8bee2bqfa",980,"12.csv","","2342.300000011921","resources/images/coin2.png","13","",NA,NA,NA,NA,""
"image-keyboard-response",9,47180,"0.0-2.0-7.0","wl8mqz8bee2bqfa",980,"12.csv","","1699.300000011921","resources/images/fishbone.png","13","",NA,NA,NA,NA,""
"html-keyboard-response",10,52399,"0.0-2.0-8.0","wl8mqz8bee2bqfa",980,"12.csv","","5218.699999988079","<p>Your first journey will be a long one, but you will get a well deserved break at the end</p><p>After the break you will have four more journeys, but each will be much shorter than the first, and you will have breaks in between each</p><p>Press Enter to begin</p>","13","",NA,NA,NA,NA,""
"image-keyboard-response",11,53177,"0.0-3.0-0.0","wl8mqz8bee2bqfa",980,"12.csv","","774.5","resources/trios/L1T1A2.jpg","37","restless",0.7,0.9,0.3,0.339643128599982,"true"
"image-keyboard-response",12,53591,"0.0-3.0-1.0","wl8mqz8bee2bqfa",980,"12.csv","","null","resources/maskTrios/L1BB.jpg","null","",NA,NA,NA,NA,""
"image-keyboard-response",13,54799,"0.0-3.0-2.0","wl8mqz8bee2bqfa",980,"12.csv","","null","resources/images/coin2.png","null","",NA,NA,NA,NA,""
"image-keyboard-response",14,55347,"0.0-3.1-0.1","wl8mqz8bee2bqfa",980,"12.csv","","545.8999999761581","resources/trios/L1T4A1.jpg","38","restless",0.7,0.9,0.3,0.0059824483055062,"true"
"image-keyboard-response",15,55756,"0.0-3.1-1.1","wl8mqz8bee2bqfa",980,"12.csv","","null","resources/maskTrios/BT4B.jpg","null","",NA,NA,NA,NA,""
"image-keyboard-response",16,56963,"0.0-3.1-2.1","wl8mqz8bee2bqfa",980,"12.csv","","null","resources/images/coin2.png","null","",NA,NA,NA,NA,""
"image-keyboard-response",17,57476,"0.0-3.2-0.2","wl8mqz8bee2bqfa",980,"12.csv","","511.4000000357628","resources/trios/L1T4A2.jpg","38","restless",0.7,0.9,0.3,0.629932725166839,"true"
"image-keyboard-response",18,57883,"0.0-3.2-1.2","wl8mqz8bee2bqfa",980,"12.csv","","null","resources/maskTrios/BT4B.jpg","null","",NA,NA,NA,NA,""
"image-keyboard-response",19,59095,"0.0-3.2-2.2","wl8mqz8bee2bqfa",980,"12.csv","","null","resources/images/coin2.png","null","",NA,NA,NA,NA,""
"image-keyboard-response",20,59491,"0.0-3.3-0.3","wl8mqz8bee2bqfa",980,"12.csv","","394.5999999642372","resources/trios/L1T1A2.jpg","39","restless",0.7,0.9,0.3,0.278026310560233,"true"
"image-keyboard-response",21,59903,"0.0-3.3-1.3","wl8mqz8bee2bqfa",980,"12.csv","","null","resources/maskTrios/BBA2.jpg","null","",NA,NA,NA,NA,""
"image-keyboard-response",22,61107,"0.0-3.3-2.3","wl8mqz8bee2bqfa",980,"12.csv","","null","resources/images/coin2.png","null","",NA,NA,NA,NA,""
"image-keyboard-response",23,61360,"0.0-3.4-0.4","wl8mqz8bee2bqfa",980,"12.csv","","251.5","resources/trios/L1T4A1.jpg","37","restless",0.8,0.8,0.2,0.279786850738375,"true"
"image-keyboard-response",24,61764,"0.0-3.4-1.4","wl8mqz8bee2bqfa",980,"12.csv","","null","resources/maskTrios/L1BB.jpg","null","",NA,NA,NA,NA,""
"image-keyboard-response",25,62974,"0.0-3.4-2.4","wl8mqz8bee2bqfa",980,"12.csv","","null","resources/images/coin2.png","null","",NA,NA,NA,NA,""
"image-keyboard-response",26,63259,"0.0-3.5-0.5","wl8mqz8bee2bqfa",980,"12.csv","","284.2000000476837","resources/trios/L2T4A1.jpg","37","restless",0.8,0.7,0.2,0.158089492288152,"true"
"image-keyboard-response",27,63666,"0.0-3.5-1.5","wl8mqz8bee2bqfa",980,"12.csv","","null","resources/maskTrios/L2BB.jpg","null","",NA,NA,NA,NA,""
"image-keyboard-response",28,64876,"0.0-3.5-2.5","wl8mqz8bee2bqfa",980,"12.csv","","null","resources/images/coin2.png","null","",NA,NA,NA,NA,""
"image-keyboard-response",29,65139,"0.0-3.6-0.6","wl8mqz8bee2bqfa",980,"12.csv","","261.69999998807907","resources/trios/L1T4A1.jpg","38","restless",0.8,0.7,0.2,0.943992606234184,"false"
"image-keyboard-response",30,65552,"0.0-3.6-1.6","wl8mqz8bee2bqfa",980,"12.csv","","null","resources/maskTrios/BT4B.jpg","null","",NA,NA,NA,NA,""
"image-keyboard-response",31,66759,"0.0-3.6-2.6","wl8mqz8bee2bqfa",980,"12.csv","","null","resources/images/fishbone.png","null","",NA,NA,NA,NA,""
"image-keyboard-response",32,67100,"0.0-3.7-0.7","wl8mqz8bee2bqfa",980,"12.csv","","338.69999998807907","resources/trios/L2T1A2.jpg","37","restless",0.8,0.7,0.2,0.343687939211225,"true"
"image-keyboard-response",33,67507,"0.0-3.7-1.7","wl8mqz8bee2bqfa",980,"12.csv","","null","resources/maskTrios/L2BB.jpg","null","",NA,NA,NA,NA,""
"image-keyboard-response",34,68718,"0.0-3.7-2.7","wl8mqz8bee2bqfa",980,"12.csv","","null","resources/images/coin2.png","null","",NA,NA,NA,NA,""
"image-keyboard-response",35,69112,"0.0-3.8-0.8","wl8mqz8bee2bqfa",980,"12.csv","","393.19999998807907","resources/trios/L1T1A1.jpg","37","restless",0.7,0.7,0.2,0.446334990760374,"true"
"image-keyboard-response",36,69515,"0.0-3.8-1.8","wl8mqz8bee2bqfa",980,"12.csv","","null","resources/maskTrios/L1BB.jpg","null","",NA,NA,NA,NA,""
"image-keyboard-response",37,70727,"0.0-3.8-2.8","wl8mqz8bee2bqfa",980,"12.csv","","null","resources/images/coin2.png","null","",NA,NA,NA,NA,""
"image-keyboard-response",38,71139,"0.0-3.9-0.9","wl8mqz8bee2bqfa",980,"12.csv","","411.5999999642372","resources/trios/L2T1A1.jpg","39","restless",0.7,0.7,0.2,0.153417912425414,"true"
"image-keyboard-response",39,71547,"0.0-3.9-1.9","wl8mqz8bee2bqfa",980,"12.csv","","null","resources/maskTrios/BBA1.jpg","null","",NA,NA,NA,NA,""
"image-keyboard-response",40,72759,"0.0-3.9-2.9","wl8mqz8bee2bqfa",980,"12.csv","","null","resources/images/coin2.png","null","",NA,NA,NA,NA,""
"image-keyboard-response",41,73025,"0.0-3.10-0.10","wl8mqz8bee2bqfa",980,"12.csv","","264.19999998807907","resources/trios/L1T1A1.jpg","39","restless",0.7,0.7,0.3,0.476471923831981,"false"
"image-keyboard-response",42,73435,"0.0-3.10-1.10","wl8mqz8bee2bqfa",980,"12.csv","","null","resources/maskTrios/BBA1.jpg","null","",NA,NA,NA,NA,""
"image-keyboard-response",43,74645,"0.0-3.10-2.10","wl8mqz8bee2bqfa",980,"12.csv","","null","resources/images/fishbone.png","null","",NA,NA,NA,NA,""
"image-keyboard-response",44,75002,"0.0-3.11-0.11","wl8mqz8bee2bqfa",980,"12.csv","","355.9000000357628","resources/trios/L1T1A1.jpg","37","restless",0.7,0.7,0.4,0.743284666547249,"false"
"image-keyboard-response",45,75412,"0.0-3.11-1.11","wl8mqz8bee2bqfa",980,"12.csv","","null","resources/maskTrios/L1BB.jpg","null","",NA,NA,NA,NA,""
"image-keyboard-response",46,76619,"0.0-3.11-2.11","wl8mqz8bee2bqfa",980,"12.csv","","null","resources/images/fishbone.png","null","",NA,NA,NA,NA,""
"image-keyboard-response",47,76915,"0.0-3.12-0.12","wl8mqz8bee2bqfa",980,"12.csv","","294.69999998807907","resources/trios/L2T4A1.jpg","38","restless",0.7,0.7,0.5,0.726332515069612,"false"
"image-keyboard-response",48,77327,"0.0-3.12-1.12","wl8mqz8bee2bqfa",980,"12.csv","","null","resources/maskTrios/BT4B.jpg","null","",NA,NA,NA,NA,""
"image-keyboard-response",49,78530,"0.0-3.12-2.12","wl8mqz8bee2bqfa",980,"12.csv","","null","resources/images/fishbone.png","null","",NA,NA,NA,NA,""
"image-keyboard-response",50,78813,"0.0-3.13-0.13","wl8mqz8bee2bqfa",980,"12.csv","","281.30000001192093","resources/trios/L2T4A2.jpg","37","restless",0.7,0.7,0.5,0.828956005760604,"false"
"image-keyboard-response",51,79223,"0.0-3.13-1.13","wl8mqz8bee2bqfa",980,"12.csv","","null","resources/maskTrios/L2BB.jpg","null","",NA,NA,NA,NA,""
"image-keyboard-response",52,80429,"0.0-3.13-2.13","wl8mqz8bee2bqfa",980,"12.csv","","null","resources/images/fishbone.png","null","",NA,NA,NA,NA,""
"image-keyboard-response",53,80701,"0.0-3.14-0.14","wl8mqz8bee2bqfa",980,"12.csv","","270.30000001192093","resources/trios/L2T1A2.jpg","39","restless",0.8,0.7,0.5,0.880641815259839,"false"
"image-keyboard-response",54,81107,"0.0-3.14-1.14","wl8mqz8bee2bqfa",980,"12.csv","","null","resources/maskTrios/BBA2.jpg","null","",NA,NA,NA,NA,""
"image-keyboard-response",55,82319,"0.0-3.14-2.14","wl8mqz8bee2bqfa",980,"12.csv","","null","resources/images/fishbone.png","null","",NA,NA,NA,NA,""
"image-keyboard-response",56,82621,"0.0-3.15-0.15","wl8mqz8bee2bqfa",980,"12.csv","","300.0999999642372","resources/trios/L2T4A1.jpg","38","restless",0.8,0.7,0.5,0.445129658237544,"true"
"image-keyboard-response",57,83031,"0.0-3.15-1.15","wl8mqz8bee2bqfa",980,"12.csv","","null","resources/maskTrios/BT4B.jpg","null","",NA,NA,NA,NA,""
"image-keyboard-response",58,84236,"0.0-3.15-2.15","wl8mqz8bee2bqfa",980,"12.csv","","null","resources/images/coin2.png","null","",NA,NA,NA,NA,""
"image-keyboard-response",59,84462,"0.0-3.16-0.16","wl8mqz8bee2bqfa",980,"12.csv","","224.4000000357628","resources/trios/L2T1A1.jpg","38","restless",0.8,0.7,0.5,0.756641069221839,"false"
"image-keyboard-response",60,84867,"0.0-3.16-1.16","wl8mqz8bee2bqfa",980,"12.csv","","null","resources/maskTrios/BT1B.jpg","null","",NA,NA,NA,NA,""
"image-keyboard-response",61,86075,"0.0-3.16-2.16","wl8mqz8bee2bqfa",980,"12.csv","","null","resources/images/fishbone.png","null","",NA,NA,NA,NA,""
"image-keyboard-response",62,86528,"0.0-3.17-0.17","wl8mqz8bee2bqfa",980,"12.csv","","451.4000000357628","resources/trios/L2T4A2.jpg","37","restless",0.8,0.7,0.5,0.651423321752751,"true"
"image-keyboard-response",63,86936,"0.0-3.17-1.17","wl8mqz8bee2bqfa",980,"12.csv","","null","resources/maskTrios/L2BB.jpg","null","",NA,NA,NA,NA,""
"image-keyboard-response",64,88139,"0.0-3.17-2.17","wl8mqz8bee2bqfa",980,"12.csv","","null","resources/images/coin2.png","null","",NA,NA,NA,NA,""
"image-keyboard-response",65,88743,"0.0-3.18-0.18","wl8mqz8bee2bqfa",980,"12.csv","","602.3000000119209","resources/trios/L1T1A2.jpg","37","restless",0.8,0.7,0.5,0.235734440706486,"true"
"image-keyboard-response",66,89152,"0.0-3.18-1.18","wl8mqz8bee2bqfa",980,"12.csv","","null","resources/maskTrios/L1BB.jpg","null","",NA,NA,NA,NA,""
"image-keyboard-response",67,90360,"0.0-3.18-2.18","wl8mqz8bee2bqfa",980,"12.csv","","null","resources/images/coin2.png","null","",NA,NA,NA,NA,""
"image-keyboard-response",68,90730,"0.0-3.19-0.19","wl8mqz8bee2bqfa",980,"12.csv","","369.30000001192093","resources/trios/L1T4A2.jpg","38","restless",0.8,0.7,0.5,0.392643137192124,"true"
"image-keyboard-response",69,91144,"0.0-3.19-1.19","wl8mqz8bee2bqfa",980,"12.csv","","null","resources/maskTrios/BT4B.jpg","null","",NA,NA,NA,NA,""
"image-keyboard-response",70,92352,"0.0-3.19-2.19","wl8mqz8bee2bqfa",980,"12.csv","","null","resources/images/coin2.png","null","",NA,NA,NA,NA,""
"image-keyboard-response",71,92765,"0.0-3.20-0.20","wl8mqz8bee2bqfa",980,"12.csv","","412","resources/trios/L1T4A2.jpg","37","restless",0.8,0.8,0.5,0.219803027586103,"true"
"image-keyboard-response",72,93176,"0.0-3.20-1.20","wl8mqz8bee2bqfa",980,"12.csv","","null","resources/maskTrios/L1BB.jpg","null","",NA,NA,NA,NA,""
"image-keyboard-response",73,94380,"0.0-3.20-2.20","wl8mqz8bee2bqfa",980,"12.csv","","null","resources/images/coin2.png","null","",NA,NA,NA,NA,""
"image-keyboard-response",74,94750,"0.0-3.21-0.21","wl8mqz8bee2bqfa",980,"12.csv","","368.4000000357628","resources/trios/L2T1A2.jpg","38","restless",0.8,0.8,0.5,0.752388850459053,"true"
"image-keyboard-response",75,95156,"0.0-3.21-1.21","wl8mqz8bee2bqfa",980,"12.csv","","null","resources/maskTrios/BT1B.jpg","null","",NA,NA,NA,NA,""
"image-keyboard-response",76,96366,"0.0-3.21-2.21","wl8mqz8bee2bqfa",980,"12.csv","","null","resources/images/coin2.png","null","",NA,NA,NA,NA,""
"image-keyboard-response",77,97052,"0.0-3.22-0.22","wl8mqz8bee2bqfa",980,"12.csv","","685.1999999880791","resources/trios/L2T1A2.jpg","37","restless",0.8,0.8,0.5,0.570309461222843,"true"
"image-keyboard-response",78,97459,"0.0-3.22-1.22","wl8mqz8bee2bqfa",980,"12.csv","","null","resources/maskTrios/L2BB.jpg","null","",NA,NA,NA,NA,""
"image-keyboard-response",79,98672,"0.0-3.22-2.22","wl8mqz8bee2bqfa",980,"12.csv","","null","resources/images/coin2.png","null","",NA,NA,NA,NA,""
"image-keyboard-response",80,99129,"0.0-3.23-0.23","wl8mqz8bee2bqfa",980,"12.csv","","455.80000001192093","resources/trios/L2T4A2.jpg","37","restless",0.8,0.8,0.5,0.447719272136288,"true"
"image-keyboard-response",81,99536,"0.0-3.23-1.23","wl8mqz8bee2bqfa",980,"12.csv","","null","resources/maskTrios/L2BB.jpg","null","",NA,NA,NA,NA,""
"image-keyboard-response",82,100744,"0.0-3.23-2.23","wl8mqz8bee2bqfa",980,"12.csv","","null","resources/images/coin2.png","null","",NA,NA,NA,NA,""
"image-keyboard-response",83,101169,"0.0-3.24-0.24","wl8mqz8bee2bqfa",980,"12.csv","","423.39999997615814","resources/trios/L2T1A2.jpg","37","restless",0.8,0.8,0.5,0.482563833842277,"true"
"image-keyboard-response",84,101571,"0.0-3.24-1.24","wl8mqz8bee2bqfa",980,"12.csv","","null","resources/maskTrios/L2BB.jpg","null","",NA,NA,NA,NA,""
"image-keyboard-response",85,102784,"0.0-3.24-2.24","wl8mqz8bee2bqfa",980,"12.csv","","null","resources/images/coin2.png","null","",NA,NA,NA,NA,""
"image-keyboard-response",86,103056,"0.0-3.25-0.25","wl8mqz8bee2bqfa",980,"12.csv","","270.10000002384186","resources/trios/L1T4A1.jpg","37","restless",0.8,0.8,0.5,0.156782561042016,"true"
"image-keyboard-response",87,103459,"0.0-3.25-1.25","wl8mqz8bee2bqfa",980,"12.csv","","null","resources/maskTrios/L1BB.jpg","null","",NA,NA,NA,NA,""
"image-keyboard-response",88,104669,"0.0-3.25-2.25","wl8mqz8bee2bqfa",980,"12.csv","","null","resources/images/coin2.png","null","",NA,NA,NA,NA,""
"image-keyboard-response",89,105053,"0.0-3.26-0.26","wl8mqz8bee2bqfa",980,"12.csv","","383","resources/trios/L1T4A2.jpg","37","restless",0.8,0.8,0.6,0.464744365549094,"true"
"image-keyboard-response",90,105459,"0.0-3.26-1.26","wl8mqz8bee2bqfa",980,"12.csv","","null","resources/maskTrios/L1BB.jpg","null","",NA,NA,NA,NA,""
"image-keyboard-response",91,106668,"0.0-3.26-2.26","wl8mqz8bee2bqfa",980,"12.csv","","null","resources/images/coin2.png","null","",NA,NA,NA,NA,""
"image-keyboard-response",92,107094,"0.0-3.27-0.27","wl8mqz8bee2bqfa",980,"12.csv","","424.80000001192093","resources/trios/L2T1A1.jpg","37","restless",0.8,0.8,0.6,0.29465172817248,"true"
"image-keyboard-response",93,107500,"0.0-3.27-1.27","wl8mqz8bee2bqfa",980,"12.csv","","null","resources/maskTrios/L2BB.jpg","null","",NA,NA,NA,NA,""
"image-keyboard-response",94,108709,"0.0-3.27-2.27","wl8mqz8bee2bqfa",980,"12.csv","","null","resources/images/coin2.png","null","",NA,NA,NA,NA,""
"image-keyboard-response",95,109152,"0.0-3.28-0.28","wl8mqz8bee2bqfa",980,"12.csv","","441.5","resources/trios/L2T1A1.jpg","39","restless",0.8,0.8,0.6,0.00278708239262171,"true"
"image-keyboard-response",96,109560,"0.0-3.28-1.28","wl8mqz8bee2bqfa",980,"12.csv","","null","resources/maskTrios/BBA1.jpg","null","",NA,NA,NA,NA,""
"image-keyboard-response",97,110764,"0.0-3.28-2.28","wl8mqz8bee2bqfa",980,"12.csv","","null","resources/images/coin2.png","null","",NA,NA,NA,NA,""
"image-keyboard-response",98,111109,"0.0-3.29-0.29","wl8mqz8bee2bqfa",980,"12.csv","","343.5","resources/trios/L1T1A1.jpg","39","restless",0.8,0.8,0.6,0.764614669707561,"false"
"image-keyboard-response",99,111520,"0.0-3.29-1.29","wl8mqz8bee2bqfa",980,"12.csv","","null","resources/maskTrios/BBA1.jpg","null","",NA,NA,NA,NA,""
"image-keyboard-response",100,112724,"0.0-3.29-2.29","wl8mqz8bee2bqfa",980,"12.csv","","null","resources/images/fishbone.png","null","",NA,NA,NA,NA,""
"image-keyboard-response",101,113065,"0.0-3.30-0.30","wl8mqz8bee2bqfa",980,"12.csv","","338.80000001192093","resources/trios/L2T1A1.jpg","37","restless",0.8,0.8,0.6,0.0713403453376757,"true"
"image-keyboard-response",102,113469,"0.0-3.30-1.30","wl8mqz8bee2bqfa",980,"12.csv","","null","resources/maskTrios/L2BB.jpg","null","",NA,NA,NA,NA,""
"image-keyboard-response",103,114678,"0.0-3.30-2.30","wl8mqz8bee2bqfa",980,"12.csv","","null","resources/images/coin2.png","null","",NA,NA,NA,NA,""
"image-keyboard-response",104,115246,"0.0-3.31-0.31","wl8mqz8bee2bqfa",980,"12.csv","","567.3000000119209","resources/trios/L1T1A2.jpg","37","restless",0.8,0.8,0.6,0.228596138402722,"true"
"image-keyboard-response",105,115653,"0.0-3.31-1.31","wl8mqz8bee2bqfa",980,"12.csv","","null","resources/maskTrios/L1BB.jpg","null","",NA,NA,NA,NA,""
"image-keyboard-response",106,116861,"0.0-3.31-2.31","wl8mqz8bee2bqfa",980,"12.csv","","null","resources/images/coin2.png","null","",NA,NA,NA,NA,""
"image-keyboard-response",107,117330,"0.0-3.32-0.32","wl8mqz8bee2bqfa",980,"12.csv","","467.89999997615814","resources/trios/L1T1A1.jpg","37","restless",0.8,0.8,0.7,0.363927364663256,"true"
"image-keyboard-response",108,117740,"0.0-3.32-1.32","wl8mqz8bee2bqfa",980,"12.csv","","null","resources/maskTrios/L1BB.jpg","null","",NA,NA,NA,NA,""
"image-keyboard-response",109,118951,"0.0-3.32-2.32","wl8mqz8bee2bqfa",980,"12.csv","","null","resources/images/coin2.png","null","",NA,NA,NA,NA,""
"image-keyboard-response",110,119353,"0.0-3.33-0.33","wl8mqz8bee2bqfa",980,"12.csv","","401.10000002384186","resources/trios/L1T1A1.jpg","38","restless",0.8,0.8,0.7,0.359483407443789,"true"
"image-keyboard-response",111,119761,"0.0-3.33-1.33","wl8mqz8bee2bqfa",980,"12.csv","","null","resources/maskTrios/BT1B.jpg","null","",NA,NA,NA,NA,""
"image-keyboard-response",112,120969,"0.0-3.33-2.33","wl8mqz8bee2bqfa",980,"12.csv","","null","resources/images/coin2.png","null","",NA,NA,NA,NA,""
"image-keyboard-response",113,121287,"0.0-3.34-0.34","wl8mqz8bee2bqfa",980,"12.csv","","317.19999998807907","resources/trios/L2T1A1.jpg","37","restless",0.8,0.8,0.6,0.314576622447451,"true"
"image-keyboard-response",114,121693,"0.0-3.34-1.34","wl8mqz8bee2bqfa",980,"12.csv","","null","resources/maskTrios/L2BB.jpg","null","",NA,NA,NA,NA,""
"image-keyboard-response",115,122902,"0.0-3.34-2.34","wl8mqz8bee2bqfa",980,"12.csv","","null","resources/images/coin2.png","null","",NA,NA,NA,NA,""
"image-keyboard-response",116,123370,"0.0-3.35-0.35","wl8mqz8bee2bqfa",980,"12.csv","","467.2999999523163","resources/trios/L1T1A2.jpg","37","restless",0.8,0.8,0.6,0.562744926850961,"true"
"image-keyboard-response",117,123785,"0.0-3.35-1.35","wl8mqz8bee2bqfa",980,"12.csv","","null","resources/maskTrios/L1BB.jpg","null","",NA,NA,NA,NA,""
"image-keyboard-response",118,124991,"0.0-3.35-2.35","wl8mqz8bee2bqfa",980,"12.csv","","null","resources/images/coin2.png","null","",NA,NA,NA,NA,""
"image-keyboard-response",119,125167,"0.0-3.36-0.36","wl8mqz8bee2bqfa",980,"12.csv","","174.69999998807907","resources/trios/L2T4A1.jpg","37","restless",0.8,0.8,0.5,0.657268347928053,"true"
"image-keyboard-response",120,125574,"0.0-3.36-1.36","wl8mqz8bee2bqfa",980,"12.csv","","null","resources/maskTrios/L2BB.jpg","null","",NA,NA,NA,NA,""
"image-keyboard-response",121,126785,"0.0-3.36-2.36","wl8mqz8bee2bqfa",980,"12.csv","","null","resources/images/coin2.png","null","",NA,NA,NA,NA,""
"image-keyboard-response",122,127004,"0.0-3.37-0.37","wl8mqz8bee2bqfa",980,"12.csv","","217.60000002384186","resources/trios/L1T1A1.jpg","39","restless",0.8,0.7,0.5,0.158506750646083,"true"
"image-keyboard-response",123,127413,"0.0-3.37-1.37","wl8mqz8bee2bqfa",980,"12.csv","","null","resources/maskTrios/BBA1.jpg","null","",NA,NA,NA,NA,""
"image-keyboard-response",124,128624,"0.0-3.37-2.37","wl8mqz8bee2bqfa",980,"12.csv","","null","resources/images/coin2.png","null","",NA,NA,NA,NA,""
"image-keyboard-response",125,128869,"0.0-3.38-0.38","wl8mqz8bee2bqfa",980,"12.csv","","244","resources/trios/L2T4A1.jpg","37","restless",0.8,0.7,0.5,0.883758117914499,"false"
"image-keyboard-response",126,129277,"0.0-3.38-1.38","wl8mqz8bee2bqfa",980,"12.csv","","null","resources/maskTrios/L2BB.jpg","null","",NA,NA,NA,NA,""
"image-keyboard-response",127,130485,"0.0-3.38-2.38","wl8mqz8bee2bqfa",980,"12.csv","","null","resources/images/fishbone.png","null","",NA,NA,NA,NA,""
"image-keyboard-response",128,130898,"0.0-3.39-0.39","wl8mqz8bee2bqfa",980,"12.csv","","412","resources/trios/L1T1A2.jpg","38","restless",0.8,0.7,0.5,0.277546875418685,"true"
"image-keyboard-response",129,131313,"0.0-3.39-1.39","wl8mqz8bee2bqfa",980,"12.csv","","null","resources/maskTrios/BT1B.jpg","null","",NA,NA,NA,NA,""
"image-keyboard-response",130,132518,"0.0-3.39-2.39","wl8mqz8bee2bqfa",980,"12.csv","","null","resources/images/coin2.png","null","",NA,NA,NA,NA,""
"image-keyboard-response",131,132800,"0.0-3.40-0.40","wl8mqz8bee2bqfa",980,"12.csv","","281.0999999642372","resources/trios/L2T1A2.jpg","38","restless",0.8,0.7,0.5,0.177555042885288,"true"
"image-keyboard-response",132,133204,"0.0-3.40-1.40","wl8mqz8bee2bqfa",980,"12.csv","","null","resources/maskTrios/BT1B.jpg","null","",NA,NA,NA,NA,""
"image-keyboard-response",133,134413,"0.0-3.40-2.40","wl8mqz8bee2bqfa",980,"12.csv","","null","resources/images/coin2.png","null","",NA,NA,NA,NA,""
"image-keyboard-response",134,134674,"0.0-3.41-0.41","wl8mqz8bee2bqfa",980,"12.csv","","258.89999997615814","resources/trios/L1T4A2.jpg","37","restless",0.8,0.7,0.4,0.934130163186821,"false"
"image-keyboard-response",135,135077,"0.0-3.41-1.41","wl8mqz8bee2bqfa",980,"12.csv","","null","resources/maskTrios/L1BB.jpg","null","",NA,NA,NA,NA,""
"image-keyboard-response",136,136289,"0.0-3.41-2.41","wl8mqz8bee2bqfa",980,"12.csv","","null","resources/images/fishbone.png","null","",NA,NA,NA,NA,""
"image-keyboard-response",137,136516,"0.0-3.42-0.42","wl8mqz8bee2bqfa",980,"12.csv","","225.10000002384186","resources/trios/L1T1A2.jpg","38","restless",0.8,0.7,0.4,0.525581257524534,"true"
"image-keyboard-response",138,136928,"0.0-3.42-1.42","wl8mqz8bee2bqfa",980,"12.csv","","null","resources/maskTrios/BT1B.jpg","null","",NA,NA,NA,NA,""
"image-keyboard-response",139,138137,"0.0-3.42-2.42","wl8mqz8bee2bqfa",980,"12.csv","","null","resources/images/coin2.png","null","",NA,NA,NA,NA,""
"image-keyboard-response",140,138324,"0.0-3.43-0.43","wl8mqz8bee2bqfa",980,"12.csv","","184.89999997615814","resources/trios/L2T1A2.jpg","38","restless",0.8,0.7,0.4,0.432067773338463,"true"
"image-keyboard-response",141,138733,"0.0-3.43-1.43","wl8mqz8bee2bqfa",980,"12.csv","","null","resources/maskTrios/BT1B.jpg","null","",NA,NA,NA,NA,""
"image-keyboard-response",142,139944,"0.0-3.43-2.43","wl8mqz8bee2bqfa",980,"12.csv","","null","resources/images/coin2.png","null","",NA,NA,NA,NA,""
"image-keyboard-response",143,140004,"0.0-3.44-0.44","wl8mqz8bee2bqfa",980,"12.csv","","58.69999998807907","resources/trios/L1T1A1.jpg","38","restless",0.8,0.7,0.4,0.788464287134285,"false"
"image-keyboard-response",144,140414,"0.0-3.44-1.44","wl8mqz8bee2bqfa",980,"12.csv","","null","resources/maskTrios/BT1B.jpg","null","",NA,NA,NA,NA,""
"image-keyboard-response",145,141621,"0.0-3.44-2.44","wl8mqz8bee2bqfa",980,"12.csv","","null","resources/images/fishbone.png","null","",NA,NA,NA,NA,""
"image-keyboard-response",146,141857,"0.0-3.45-0.45","wl8mqz8bee2bqfa",980,"12.csv","","234.30000001192093","resources/trios/L1T1A2.jpg","39","restless",0.8,0.6,0.4,0.387806758691527,"true"
"image-keyboard-response",147,142261,"0.0-3.45-1.45","wl8mqz8bee2bqfa",980,"12.csv","","null","resources/maskTrios/BBA2.jpg","null","",NA,NA,NA,NA,""
"image-keyboard-response",148,143473,"0.0-3.45-2.45","wl8mqz8bee2bqfa",980,"12.csv","","null","resources/images/coin2.png","null","",NA,NA,NA,NA,""
"image-keyboard-response",149,143751,"0.0-3.46-0.46","wl8mqz8bee2bqfa",980,"12.csv","","276.5","resources/trios/L2T4A1.jpg","37","restless",0.8,0.6,0.4,0.132219303827907,"true"
"image-keyboard-response",150,144157,"0.0-3.46-1.46","wl8mqz8bee2bqfa",980,"12.csv","","null","resources/maskTrios/L2BB.jpg","null","",NA,NA,NA,NA,""
"image-keyboard-response",151,145365,"0.0-3.46-2.46","wl8mqz8bee2bqfa",980,"12.csv","","null","resources/images/coin2.png","null","",NA,NA,NA,NA,""
"image-keyboard-response",152,145771,"0.0-3.47-0.47","wl8mqz8bee2bqfa",980,"12.csv","","404.30000001192093","resources/trios/L2T1A2.jpg","37","restless",0.8,0.5,0.4,0.0426689336868227,"true"
"image-keyboard-response",153,146175,"0.0-3.47-1.47","wl8mqz8bee2bqfa",980,"12.csv","","null","resources/maskTrios/L2BB.jpg","null","",NA,NA,NA,NA,""
"image-keyboard-response",154,147385,"0.0-3.47-2.47","wl8mqz8bee2bqfa",980,"12.csv","","null","resources/images/coin2.png","null","",NA,NA,NA,NA,""
"image-keyboard-response",155,147645,"0.0-3.48-0.48","wl8mqz8bee2bqfa",980,"12.csv","","258.30000001192093","resources/trios/L2T4A1.jpg","37","restless",0.8,0.5,0.4,0.532483837055943,"true"
"image-keyboard-response",156,148052,"0.0-3.48-1.48","wl8mqz8bee2bqfa",980,"12.csv","","null","resources/maskTrios/L2BB.jpg","null","",NA,NA,NA,NA,""
"image-keyboard-response",157,149261,"0.0-3.48-2.48","wl8mqz8bee2bqfa",980,"12.csv","","null","resources/images/coin2.png","null","",NA,NA,NA,NA,""
"image-keyboard-response",158,149560,"0.0-3.49-0.49","wl8mqz8bee2bqfa",980,"12.csv","","297.0999999642372","resources/trios/L1T4A1.jpg","37","restless",0.8,0.6,0.4,0.833607730218266,"false"
"image-keyboard-response",159,149970,"0.0-3.49-1.49","wl8mqz8bee2bqfa",980,"12.csv","","null","resources/maskTrios/L1BB.jpg","null","",NA,NA,NA,NA,""
"image-keyboard-response",160,151174,"0.0-3.49-2.49","wl8mqz8bee2bqfa",980,"12.csv","","null","resources/images/fishbone.png","null","",NA,NA,NA,NA,""
"image-keyboard-response",161,151461,"0.0-3.50-0.50","wl8mqz8bee2bqfa",980,"12.csv","","286.10000002384186","resources/trios/L2T1A1.jpg","39","restless",0.8,0.6,0.4,0.898729060437851,"false"
"image-keyboard-response",162,151874,"0.0-3.50-1.50","wl8mqz8bee2bqfa",980,"12.csv","","null","resources/maskTrios/BBA1.jpg","null","",NA,NA,NA,NA,""
"image-keyboard-response",163,153078,"0.0-3.50-2.50","wl8mqz8bee2bqfa",980,"12.csv","","null","resources/images/fishbone.png","null","",NA,NA,NA,NA,""
"image-keyboard-response",164,153488,"0.0-3.51-0.51","wl8mqz8bee2bqfa",980,"12.csv","","408.5999999642372","resources/trios/L2T4A1.jpg","38","restless",0.8,0.5,0.4,0.817239475776632,"false"
"image-keyboard-response",165,153898,"0.0-3.51-1.51","wl8mqz8bee2bqfa",980,"12.csv","","null","resources/maskTrios/BT4B.jpg","null","",NA,NA,NA,NA,""
"image-keyboard-response",166,155104,"0.0-3.51-2.51","wl8mqz8bee2bqfa",980,"12.csv","","null","resources/images/fishbone.png","null","",NA,NA,NA,NA,""
"image-keyboard-response",167,155454,"0.0-3.52-0.52","wl8mqz8bee2bqfa",980,"12.csv","","348.19999998807907","resources/trios/L1T4A2.jpg","37","restless",0.8,0.5,0.4,0.242719328773041,"true"
"image-keyboard-response",168,155862,"0.0-3.52-1.52","wl8mqz8bee2bqfa",980,"12.csv","","null","resources/maskTrios/L1BB.jpg","null","",NA,NA,NA,NA,""
"image-keyboard-response",169,157070,"0.0-3.52-2.52","wl8mqz8bee2bqfa",980,"12.csv","","null","resources/images/coin2.png","null","",NA,NA,NA,NA,""
"image-keyboard-response",170,157418,"0.0-3.53-0.53","wl8mqz8bee2bqfa",980,"12.csv","","347.30000001192093","resources/trios/L2T1A1.jpg","37","restless",0.8,0.5,0.4,0.503115096730953,"true"
"image-keyboard-response",171,157822,"0.0-3.53-1.53","wl8mqz8bee2bqfa",980,"12.csv","","null","resources/maskTrios/L2BB.jpg","null","",NA,NA,NA,NA,""
"image-keyboard-response",172,159032,"0.0-3.53-2.53","wl8mqz8bee2bqfa",980,"12.csv","","null","resources/images/coin2.png","null","",NA,NA,NA,NA,""
"image-keyboard-response",173,159751,"0.0-3.54-0.54","wl8mqz8bee2bqfa",980,"12.csv","","718","resources/trios/L1T1A1.jpg","37","restless",0.8,0.5,0.4,0.284582819381186,"true"
"image-keyboard-response",174,160162,"0.0-3.54-1.54","wl8mqz8bee2bqfa",980,"12.csv","","null","resources/maskTrios/L1BB.jpg","null","",NA,NA,NA,NA,""
"image-keyboard-response",175,161367,"0.0-3.54-2.54","wl8mqz8bee2bqfa",980,"12.csv","","null","resources/images/coin2.png","null","",NA,NA,NA,NA,""
"image-keyboard-response",176,161806,"0.0-3.55-0.55","wl8mqz8bee2bqfa",980,"12.csv","","437","resources/trios/L1T4A1.jpg","37","restless",0.8,0.5,0.4,0.252736476006348,"true"
"image-keyboard-response",177,162218,"0.0-3.55-1.55","wl8mqz8bee2bqfa",980,"12.csv","","null","resources/maskTrios/L1BB.jpg","null","",NA,NA,NA,NA,""
"image-keyboard-response",178,163421,"0.0-3.55-2.55","wl8mqz8bee2bqfa",980,"12.csv","","null","resources/images/coin2.png","null","",NA,NA,NA,NA,""
"image-keyboard-response",179,163563,"0.0-3.56-0.56","wl8mqz8bee2bqfa",980,"12.csv","","139.69999998807907","resources/trios/L1T4A2.jpg","37","restless",0.8,0.6,0.4,0.311213855469003,"true"
"image-keyboard-response",180,163965,"0.0-3.56-1.56","wl8mqz8bee2bqfa",980,"12.csv","","null","resources/maskTrios/L1BB.jpg","null","",NA,NA,NA,NA,""
"image-keyboard-response",181,165175,"0.0-3.56-2.56","wl8mqz8bee2bqfa",980,"12.csv","","null","resources/images/coin2.png","null","",NA,NA,NA,NA,""
"image-keyboard-response",182,165440,"0.0-3.57-0.57","wl8mqz8bee2bqfa",980,"12.csv","","263.69999998807907","resources/trios/L1T1A1.jpg","37","restless",0.8,0.6,0.4,0.258144909704127,"true"
"image-keyboard-response",183,165845,"0.0-3.57-1.57","wl8mqz8bee2bqfa",980,"12.csv","","null","resources/maskTrios/L1BB.jpg","null","",NA,NA,NA,NA,""
"image-keyboard-response",184,167055,"0.0-3.57-2.57","wl8mqz8bee2bqfa",980,"12.csv","","null","resources/images/coin2.png","null","",NA,NA,NA,NA,""
"image-keyboard-response",185,167092,"0.0-3.58-0.58","wl8mqz8bee2bqfa",980,"12.csv","","36","resources/trios/L1T4A1.jpg","37","restless",0.8,0.7,0.4,0.775536375987345,"true"
"image-keyboard-response",186,167495,"0.0-3.58-1.58","wl8mqz8bee2bqfa",980,"12.csv","","null","resources/maskTrios/L1BB.jpg","null","",NA,NA,NA,NA,""
"image-keyboard-response",187,168701,"0.0-3.58-2.58","wl8mqz8bee2bqfa",980,"12.csv","","null","resources/images/coin2.png","null","",NA,NA,NA,NA,""
"image-keyboard-response",188,168927,"0.0-3.59-0.59","wl8mqz8bee2bqfa",980,"12.csv","","224.60000002384186","resources/trios/L2T4A1.jpg","38","restless",0.8,0.6,0.4,0.155347024553975,"true"
"image-keyboard-response",189,169333,"0.0-3.59-1.59","wl8mqz8bee2bqfa",980,"12.csv","","null","resources/maskTrios/BT4B.jpg","null","",NA,NA,NA,NA,""
"image-keyboard-response",190,170543,"0.0-3.59-2.59","wl8mqz8bee2bqfa",980,"12.csv","","null","resources/images/coin2.png","null","",NA,NA,NA,NA,""
"image-keyboard-response",191,170729,"0.0-3.60-0.60","wl8mqz8bee2bqfa",980,"12.csv","","184.19999998807907","resources/trios/L2T4A1.jpg","39","restless",0.8,0.5,0.4,0.378377314447025,"true"
"image-keyboard-response",192,171134,"0.0-3.60-1.60","wl8mqz8bee2bqfa",980,"12.csv","","null","resources/maskTrios/BBA1.jpg","null","",NA,NA,NA,NA,""
"image-keyboard-response",193,172342,"0.0-3.60-2.60","wl8mqz8bee2bqfa",980,"12.csv","","null","resources/images/coin2.png","null","",NA,NA,NA,NA,""
"image-keyboard-response",194,172615,"0.0-3.61-0.61","wl8mqz8bee2bqfa",980,"12.csv","","271.5999999642372","resources/trios/L1T1A1.jpg","37","restless",0.7,0.5,0.4,0.382518813616556,"true"
"image-keyboard-response",195,173023,"0.0-3.61-1.61","wl8mqz8bee2bqfa",980,"12.csv","","null","resources/maskTrios/L1BB.jpg","null","",NA,NA,NA,NA,""
"image-keyboard-response",196,174233,"0.0-3.61-2.61","wl8mqz8bee2bqfa",980,"12.csv","","null","resources/images/coin2.png","null","",NA,NA,NA,NA,""
"image-keyboard-response",197,174712,"0.0-3.62-0.62","wl8mqz8bee2bqfa",980,"12.csv","","477.19999998807907","resources/trios/L2T1A1.jpg","37","restless",0.7,0.5,0.4,0.401489721471267,"true"
"image-keyboard-response",198,175121,"0.0-3.62-1.62","wl8mqz8bee2bqfa",980,"12.csv","","null","resources/maskTrios/L2BB.jpg","null","",NA,NA,NA,NA,""
"image-keyboard-response",199,176330,"0.0-3.62-2.62","wl8mqz8bee2bqfa",980,"12.csv","","null","resources/images/coin2.png","null","",NA,NA,NA,NA,""
"image-keyboard-response",200,176603,"0.0-3.63-0.63","wl8mqz8bee2bqfa",980,"12.csv","","272.10000002384186","resources/trios/L1T1A1.jpg","37","restless",0.7,0.5,0.4,0.557936380013133,"true"
"image-keyboard-response",201,177008,"0.0-3.63-1.63","wl8mqz8bee2bqfa",980,"12.csv","","null","resources/maskTrios/L1BB.jpg","null","",NA,NA,NA,NA,""
"image-keyboard-response",202,178215,"0.0-3.63-2.63","wl8mqz8bee2bqfa",980,"12.csv","","null","resources/images/coin2.png","null","",NA,NA,NA,NA,""
"image-keyboard-response",203,178464,"0.0-3.64-0.64","wl8mqz8bee2bqfa",980,"12.csv","","247.5","resources/trios/L2T4A2.jpg","37","restless",0.7,0.5,0.4,0.175890463573481,"true"
"image-keyboard-response",204,178871,"0.0-3.64-1.64","wl8mqz8bee2bqfa",980,"12.csv","","null","resources/maskTrios/L2BB.jpg","null","",NA,NA,NA,NA,""
"image-keyboard-response",205,180080,"0.0-3.64-2.64","wl8mqz8bee2bqfa",980,"12.csv","","null","resources/images/coin2.png","null","",NA,NA,NA,NA,""
"image-keyboard-response",206,180396,"0.0-3.65-0.65","wl8mqz8bee2bqfa",980,"12.csv","","314.5","resources/trios/L1T1A2.jpg","37","restless",0.7,0.5,0.4,0.0215304368951978,"true"
"image-keyboard-response",207,180799,"0.0-3.65-1.65","wl8mqz8bee2bqfa",980,"12.csv","","null","resources/maskTrios/L1BB.jpg","null","",NA,NA,NA,NA,""
"image-keyboard-response",208,182010,"0.0-3.65-2.65","wl8mqz8bee2bqfa",980,"12.csv","","null","resources/images/coin2.png","null","",NA,NA,NA,NA,""
"image-keyboard-response",209,182357,"0.0-3.66-0.66","wl8mqz8bee2bqfa",980,"12.csv","","345.9000000357628","resources/trios/L1T1A1.jpg","38","restless",0.7,0.5,0.4,0.243680277950823,"true"
"image-keyboard-response",210,182770,"0.0-3.66-1.66","wl8mqz8bee2bqfa",980,"12.csv","","null","resources/maskTrios/BT1B.jpg","null","",NA,NA,NA,NA,""
"image-keyboard-response",211,183973,"0.0-3.66-2.66","wl8mqz8bee2bqfa",980,"12.csv","","null","resources/images/coin2.png","null","",NA,NA,NA,NA,""
"image-keyboard-response",212,184488,"0.0-3.67-0.67","wl8mqz8bee2bqfa",980,"12.csv","","513.7000000476837","resources/trios/L2T1A2.jpg","39","restless",0.7,0.5,0.4,0.304422105899714,"true"
"image-keyboard-response",213,184893,"0.0-3.67-1.67","wl8mqz8bee2bqfa",980,"12.csv","","null","resources/maskTrios/BBA2.jpg","null","",NA,NA,NA,NA,""
"image-keyboard-response",214,186102,"0.0-3.67-2.67","wl8mqz8bee2bqfa",980,"12.csv","","null","resources/images/coin2.png","null","",NA,NA,NA,NA,""
"image-keyboard-response",215,186411,"0.0-3.68-0.68","wl8mqz8bee2bqfa",980,"12.csv","","307.80000001192093","resources/trios/L2T1A2.jpg","37","restless",0.7,0.5,0.4,0.874959035934337,"false"
"image-keyboard-response",216,186814,"0.0-3.68-1.68","wl8mqz8bee2bqfa",980,"12.csv","","null","resources/maskTrios/L2BB.jpg","null","",NA,NA,NA,NA,""
"image-keyboard-response",217,188026,"0.0-3.68-2.68","wl8mqz8bee2bqfa",980,"12.csv","","null","resources/images/fishbone.png","null","",NA,NA,NA,NA,""
"image-keyboard-response",218,188419,"0.0-3.69-0.69","wl8mqz8bee2bqfa",980,"12.csv","","392.5","resources/trios/L2T4A1.jpg","38","restless",0.7,0.5,0.4,0.0055612792091726,"true"
"image-keyboard-response",219,188822,"0.0-3.69-1.69","wl8mqz8bee2bqfa",980,"12.csv","","null","resources/maskTrios/BT4B.jpg","null","",NA,NA,NA,NA,""
"image-keyboard-response",220,190034,"0.0-3.69-2.69","wl8mqz8bee2bqfa",980,"12.csv","","null","resources/images/coin2.png","null","",NA,NA,NA,NA,""
"image-keyboard-response",221,190299,"0.0-3.70-0.70","wl8mqz8bee2bqfa",980,"12.csv","","264.4000000357628","resources/trios/L1T1A1.jpg","38","restless",0.7,0.5,0.4,0.224365148988932,"true"
"image-keyboard-response",222,190702,"0.0-3.70-1.70","wl8mqz8bee2bqfa",980,"12.csv","","null","resources/maskTrios/BT1B.jpg","null","",NA,NA,NA,NA,""
"image-keyboard-response",223,191910,"0.0-3.70-2.70","wl8mqz8bee2bqfa",980,"12.csv","","null","resources/images/coin2.png","null","",NA,NA,NA,NA,""
"image-keyboard-response",224,192146,"0.0-3.71-0.71","wl8mqz8bee2bqfa",980,"12.csv","","234.69999998807907","resources/trios/L2T1A1.jpg","37","restless",0.7,0.5,0.4,0.156586765853742,"true"
"image-keyboard-response",225,192550,"0.0-3.71-1.71","wl8mqz8bee2bqfa",980,"12.csv","","null","resources/maskTrios/L2BB.jpg","null","",NA,NA,NA,NA,""
"image-keyboard-response",226,193758,"0.0-3.71-2.71","wl8mqz8bee2bqfa",980,"12.csv","","null","resources/images/coin2.png","null","",NA,NA,NA,NA,""
"image-keyboard-response",227,193993,"0.0-3.72-0.72","wl8mqz8bee2bqfa",980,"12.csv","","234.10000002384186","resources/trios/L2T4A1.jpg","37","restless",0.7,0.5,0.4,0.929887467660545,"false"
"image-keyboard-response",228,194400,"0.0-3.72-1.72","wl8mqz8bee2bqfa",980,"12.csv","","null","resources/maskTrios/L2BB.jpg","null","",NA,NA,NA,NA,""
"image-keyboard-response",229,195606,"0.0-3.72-2.72","wl8mqz8bee2bqfa",980,"12.csv","","null","resources/images/fishbone.png","null","",NA,NA,NA,NA,""
"image-keyboard-response",230,195802,"0.0-3.73-0.73","wl8mqz8bee2bqfa",980,"12.csv","","194.80000001192093","resources/trios/L1T1A2.jpg","38","restless",0.7,0.4,0.4,0.977165737724099,"false"
"image-keyboard-response",231,196206,"0.0-3.73-1.73","wl8mqz8bee2bqfa",980,"12.csv","","null","resources/maskTrios/BT1B.jpg","null","",NA,NA,NA,NA,""
"image-keyboard-response",232,197415,"0.0-3.73-2.73","wl8mqz8bee2bqfa",980,"12.csv","","null","resources/images/fishbone.png","null","",NA,NA,NA,NA,""
"image-keyboard-response",233,197671,"0.0-3.74-0.74","wl8mqz8bee2bqfa",980,"12.csv","","255.19999998807907","resources/trios/L1T4A2.jpg","39","restless",0.6,0.4,0.4,0.117219556942373,"true"
"image-keyboard-response",234,198080,"0.0-3.74-1.74","wl8mqz8bee2bqfa",980,"12.csv","","null","resources/maskTrios/BBA2.jpg","null","",NA,NA,NA,NA,""
"image-keyboard-response",235,199282,"0.0-3.74-2.74","wl8mqz8bee2bqfa",980,"12.csv","","null","resources/images/coin2.png","null","",NA,NA,NA,NA,""
"image-keyboard-response",236,199463,"0.0-3.75-0.75","wl8mqz8bee2bqfa",980,"12.csv","","180.5","resources/trios/L2T4A2.jpg","39","restless",0.6,0.4,0.4,0.00762850425090988,"true"
"image-keyboard-response",237,199870,"0.0-3.75-1.75","wl8mqz8bee2bqfa",980,"12.csv","","null","resources/maskTrios/BBA2.jpg","null","",NA,NA,NA,NA,""
"image-keyboard-response",238,201080,"0.0-3.75-2.75","wl8mqz8bee2bqfa",980,"12.csv","","null","resources/images/coin2.png","null","",NA,NA,NA,NA,""
"image-keyboard-response",239,201093,"0.0-3.76-0.76","wl8mqz8bee2bqfa",980,"12.csv","","11.200000047683716","resources/trios/L2T4A1.jpg","39","restless",0.6,0.4,0.4,0.832613399108943,"false"
"image-keyboard-response",240,201502,"0.0-3.76-1.76","wl8mqz8bee2bqfa",980,"12.csv","","null","resources/maskTrios/BBA1.jpg","null","",NA,NA,NA,NA,""
"image-keyboard-response",241,202712,"0.0-3.76-2.76","wl8mqz8bee2bqfa",980,"12.csv","","null","resources/images/fishbone.png","null","",NA,NA,NA,NA,""
"image-keyboard-response",242,202727,"0.0-3.77-0.77","wl8mqz8bee2bqfa",980,"12.csv","","14.099999964237213","resources/trios/L1T4A1.jpg","37","restless",0.7,0.4,0.4,0.0170371484995639,"true"
"image-keyboard-response",243,203134,"0.0-3.77-1.77","wl8mqz8bee2bqfa",980,"12.csv","","null","resources/maskTrios/L1BB.jpg","null","",NA,NA,NA,NA,""
"image-keyboard-response",244,204343,"0.0-3.77-2.77","wl8mqz8bee2bqfa",980,"12.csv","","null","resources/images/coin2.png","null","",NA,NA,NA,NA,""
"image-keyboard-response",245,204359,"0.0-3.78-0.78","wl8mqz8bee2bqfa",980,"12.csv","","15.199999988079071","resources/trios/L1T1A2.jpg","37","restless",0.7,0.4,0.4,0.154275473749129,"true"
"image-keyboard-response",246,204768,"0.0-3.78-1.78","wl8mqz8bee2bqfa",980,"12.csv","","null","resources/maskTrios/L1BB.jpg","null","",NA,NA,NA,NA,""
"image-keyboard-response",247,205978,"0.0-3.78-2.78","wl8mqz8bee2bqfa",980,"12.csv","","null","resources/images/coin2.png","null","",NA,NA,NA,NA,""
"image-keyboard-response",248,206242,"0.0-3.79-0.79","wl8mqz8bee2bqfa",980,"12.csv","","263.5","resources/trios/L2T4A1.jpg","37","restless",0.7,0.4,0.4,0.40083037518073,"true"
"image-keyboard-response",249,206648,"0.0-3.79-1.79","wl8mqz8bee2bqfa",980,"12.csv","","null","resources/maskTrios/L2BB.jpg","null","",NA,NA,NA,NA,""
"image-keyboard-response",250,207858,"0.0-3.79-2.79","wl8mqz8bee2bqfa",980,"12.csv","","null","resources/images/coin2.png","null","",NA,NA,NA,NA,""
"image-keyboard-response",251,208093,"0.0-3.80-0.80","wl8mqz8bee2bqfa",980,"12.csv","","233.29999995231628","resources/trios/L2T4A2.jpg","37","restless",0.7,0.4,0.4,0.824498550858333,"false"
"image-keyboard-response",252,208496,"0.0-3.80-1.80","wl8mqz8bee2bqfa",980,"12.csv","","null","resources/maskTrios/L2BB.jpg","null","",NA,NA,NA,NA,""
"image-keyboard-response",253,209706,"0.0-3.80-2.80","wl8mqz8bee2bqfa",980,"12.csv","","null","resources/images/fishbone.png","null","",NA,NA,NA,NA,""
"image-keyboard-response",254,210027,"0.0-3.81-0.81","wl8mqz8bee2bqfa",980,"12.csv","","320.30000001192093","resources/trios/L2T4A1.jpg","38","restless",0.7,0.4,0.4,0.396764639661289,"true"
"image-keyboard-response",255,210431,"0.0-3.81-1.81","wl8mqz8bee2bqfa",980,"12.csv","","null","resources/maskTrios/BT4B.jpg","null","",NA,NA,NA,NA,""
"image-keyboard-response",256,211638,"0.0-3.81-2.81","wl8mqz8bee2bqfa",980,"12.csv","","null","resources/images/coin2.png","null","",NA,NA,NA,NA,""
"image-keyboard-response",257,212082,"0.0-3.82-0.82","wl8mqz8bee2bqfa",980,"12.csv","","442.7000000476837","resources/trios/L2T1A1.jpg","38","restless",0.7,0.4,0.4,0.946973130812149,"false"
"image-keyboard-response",258,212487,"0.0-3.82-1.82","wl8mqz8bee2bqfa",980,"12.csv","","null","resources/maskTrios/BT1B.jpg","null","",NA,NA,NA,NA,""
"image-keyboard-response",259,213696,"0.0-3.82-2.82","wl8mqz8bee2bqfa",980,"12.csv","","null","resources/images/fishbone.png","null","",NA,NA,NA,NA,""
"image-keyboard-response",260,213991,"0.0-3.83-0.83","wl8mqz8bee2bqfa",980,"12.csv","","293.60000002384186","resources/trios/L1T4A2.jpg","37","restless",0.7,0.4,0.4,0.275902710576313,"true"
"image-keyboard-response",261,214399,"0.0-3.83-1.83","wl8mqz8bee2bqfa",980,"12.csv","","null","resources/maskTrios/L1BB.jpg","null","",NA,NA,NA,NA,""
"image-keyboard-response",262,215610,"0.0-3.83-2.83","wl8mqz8bee2bqfa",980,"12.csv","","null","resources/images/coin2.png","null","",NA,NA,NA,NA,""
"image-keyboard-response",263,215632,"0.0-3.84-0.84","wl8mqz8bee2bqfa",980,"12.csv","","20.80000001192093","resources/trios/L2T1A1.jpg","37","restless",0.7,0.4,0.4,0.859052598657903,"false"
"image-keyboard-response",264,216038,"0.0-3.84-1.84","wl8mqz8bee2bqfa",980,"12.csv","","null","resources/maskTrios/L2BB.jpg","null","",NA,NA,NA,NA,""
"image-keyboard-response",265,217247,"0.0-3.84-2.84","wl8mqz8bee2bqfa",980,"12.csv","","null","resources/images/fishbone.png","null","",NA,NA,NA,NA,""
"image-keyboard-response",266,217953,"0.0-3.85-0.85","wl8mqz8bee2bqfa",980,"12.csv","","705.8999999761581","resources/trios/L1T4A1.jpg","37","restless",0.7,0.4,0.4,0.922230133794025,"false"
"image-keyboard-response",267,218363,"0.0-3.85-1.85","wl8mqz8bee2bqfa",980,"12.csv","","null","resources/maskTrios/L1BB.jpg","null","",NA,NA,NA,NA,""
"image-keyboard-response",268,219569,"0.0-3.85-2.85","wl8mqz8bee2bqfa",980,"12.csv","","null","resources/images/fishbone.png","null","",NA,NA,NA,NA,""
"image-keyboard-response",269,219834,"0.0-3.86-0.86","wl8mqz8bee2bqfa",980,"12.csv","","264.80000001192093","resources/trios/L1T1A2.jpg","39","restless",0.7,0.4,0.5,0.0805794760643692,"true"
"image-keyboard-response",270,220243,"0.0-3.86-1.86","wl8mqz8bee2bqfa",980,"12.csv","","null","resources/maskTrios/BBA2.jpg","null","",NA,NA,NA,NA,""
"image-keyboard-response",271,221447,"0.0-3.86-2.86","wl8mqz8bee2bqfa",980,"12.csv","","null","resources/images/coin2.png","null","",NA,NA,NA,NA,""
"image-keyboard-response",272,221667,"0.0-3.87-0.87","wl8mqz8bee2bqfa",980,"12.csv","","219.10000002384186","resources/trios/L2T1A2.jpg","39","restless",0.7,0.4,0.5,0.186655281732064,"true"
"image-keyboard-response",273,222076,"0.0-3.87-1.87","wl8mqz8bee2bqfa",980,"12.csv","","null","resources/maskTrios/BBA2.jpg","null","",NA,NA,NA,NA,""
"image-keyboard-response",274,223281,"0.0-3.87-2.87","wl8mqz8bee2bqfa",980,"12.csv","","null","resources/images/coin2.png","null","",NA,NA,NA,NA,""
"image-keyboard-response",275,223453,"0.0-3.88-0.88","wl8mqz8bee2bqfa",980,"12.csv","","171.69999998807907","resources/trios/L2T1A1.jpg","39","restless",0.7,0.5,0.5,0.602378637946864,"false"
"image-keyboard-response",276,223856,"0.0-3.88-1.88","wl8mqz8bee2bqfa",980,"12.csv","","null","resources/maskTrios/BBA1.jpg","null","",NA,NA,NA,NA,""
"image-keyboard-response",277,225063,"0.0-3.88-2.88","wl8mqz8bee2bqfa",980,"12.csv","","null","resources/images/fishbone.png","null","",NA,NA,NA,NA,""
"image-keyboard-response",278,225103,"0.0-3.89-0.89","wl8mqz8bee2bqfa",980,"12.csv","","38.69999998807907","resources/trios/L1T4A1.jpg","37","restless",0.7,0.5,0.5,0.483203272793824,"true"
"image-keyboard-response",279,225515,"0.0-3.89-1.89","wl8mqz8bee2bqfa",980,"12.csv","","null","resources/maskTrios/L1BB.jpg","null","",NA,NA,NA,NA,""
"image-keyboard-response",280,226720,"0.0-3.89-2.89","wl8mqz8bee2bqfa",980,"12.csv","","null","resources/images/coin2.png","null","",NA,NA,NA,NA,""
"image-keyboard-response",281,226977,"0.0-3.90-0.90","wl8mqz8bee2bqfa",980,"12.csv","","256.10000002384186","resources/trios/L1T4A2.jpg","37","restless",0.7,0.5,0.5,0.653626900200245,"true"
"image-keyboard-response",282,227383,"0.0-3.90-1.90","wl8mqz8bee2bqfa",980,"12.csv","","null","resources/maskTrios/L1BB.jpg","null","",NA,NA,NA,NA,""
"image-keyboard-response",283,228594,"0.0-3.90-2.90","wl8mqz8bee2bqfa",980,"12.csv","","null","resources/images/coin2.png","null","",NA,NA,NA,NA,""
"image-keyboard-response",284,228990,"0.0-3.91-0.91","wl8mqz8bee2bqfa",980,"12.csv","","395","resources/trios/L2T1A1.jpg","37","restless",0.7,0.5,0.5,0.383628629822033,"true"
"image-keyboard-response",285,229404,"0.0-3.91-1.91","wl8mqz8bee2bqfa",980,"12.csv","","null","resources/maskTrios/L2BB.jpg","null","",NA,NA,NA,NA,""
"image-keyboard-response",286,230607,"0.0-3.91-2.91","wl8mqz8bee2bqfa",980,"12.csv","","null","resources/images/coin2.png","null","",NA,NA,NA,NA,""
"image-keyboard-response",287,230901,"0.0-3.92-0.92","wl8mqz8bee2bqfa",980,"12.csv","","293.89999997615814","resources/trios/L1T4A1.jpg","37","restless",0.7,0.5,0.5,0.644126766065199,"true"
"image-keyboard-response",288,231305,"0.0-3.92-1.92","wl8mqz8bee2bqfa",980,"12.csv","","null","resources/maskTrios/L1BB.jpg","null","",NA,NA,NA,NA,""
"image-keyboard-response",289,232512,"0.0-3.92-2.92","wl8mqz8bee2bqfa",980,"12.csv","","null","resources/images/coin2.png","null","",NA,NA,NA,NA,""
"image-keyboard-response",290,232783,"0.0-3.93-0.93","wl8mqz8bee2bqfa",980,"12.csv","","270.30000001192093","resources/trios/L1T4A2.jpg","37","restless",0.7,0.5,0.5,0.8069406050728,"false"
"image-keyboard-response",291,233191,"0.0-3.93-1.93","wl8mqz8bee2bqfa",980,"12.csv","","null","resources/maskTrios/L1BB.jpg","null","",NA,NA,NA,NA,""
"image-keyboard-response",292,234400,"0.0-3.93-2.93","wl8mqz8bee2bqfa",980,"12.csv","","null","resources/images/fishbone.png","null","",NA,NA,NA,NA,""
"image-keyboard-response",293,234675,"0.0-3.94-0.94","wl8mqz8bee2bqfa",980,"12.csv","","273.9000000357628","resources/trios/L2T4A2.jpg","38","restless",0.7,0.5,0.5,0.957536544096903,"false"
"image-keyboard-response",294,235081,"0.0-3.94-1.94","wl8mqz8bee2bqfa",980,"12.csv","","null","resources/maskTrios/BT4B.jpg","null","",NA,NA,NA,NA,""
"image-keyboard-response",295,236288,"0.0-3.94-2.94","wl8mqz8bee2bqfa",980,"12.csv","","null","resources/images/fishbone.png","null","",NA,NA,NA,NA,""
"image-keyboard-response",296,236678,"0.0-3.95-0.95","wl8mqz8bee2bqfa",980,"12.csv","","388.80000001192093","resources/trios/L1T4A2.jpg","37","restless",0.7,0.5,0.5,0.938723448700043,"false"
"image-keyboard-response",297,237081,"0.0-3.95-1.95","wl8mqz8bee2bqfa",980,"12.csv","","null","resources/maskTrios/L1BB.jpg","null","",NA,NA,NA,NA,""
"image-keyboard-response",298,238289,"0.0-3.95-2.95","wl8mqz8bee2bqfa",980,"12.csv","","null","resources/images/fishbone.png","null","",NA,NA,NA,NA,""
"image-keyboard-response",299,238942,"0.0-3.96-0.96","wl8mqz8bee2bqfa",980,"12.csv","","651.5999999642372","resources/trios/L2T4A2.jpg","39","restless",0.7,0.5,0.5,0.148197807550337,"true"
"image-keyboard-response",300,239343,"0.0-3.96-1.96","wl8mqz8bee2bqfa",980,"12.csv","","null","resources/maskTrios/BBA2.jpg","null","",NA,NA,NA,NA,""
"image-keyboard-response",301,240551,"0.0-3.96-2.96","wl8mqz8bee2bqfa",980,"12.csv","","null","resources/images/coin2.png","null","",NA,NA,NA,NA,""
"image-keyboard-response",302,240939,"0.0-3.97-0.97","wl8mqz8bee2bqfa",980,"12.csv","","387","resources/trios/L1T4A2.jpg","39","restless",0.7,0.5,0.5,0.156204581325398,"true"
"image-keyboard-response",303,241348,"0.0-3.97-1.97","wl8mqz8bee2bqfa",980,"12.csv","","null","resources/maskTrios/BBA2.jpg","null","",NA,NA,NA,NA,""
"image-keyboard-response",304,242556,"0.0-3.97-2.97","wl8mqz8bee2bqfa",980,"12.csv","","null","resources/images/coin2.png","null","",NA,NA,NA,NA,""
"image-keyboard-response",305,242944,"0.0-3.98-0.98","wl8mqz8bee2bqfa",980,"12.csv","","386.69999998807907","resources/trios/L2T4A2.jpg","37","restless",0.7,0.5,0.5,0.526023773704141,"true"
"image-keyboard-response",306,243351,"0.0-3.98-1.98","wl8mqz8bee2bqfa",980,"12.csv","","null","resources/maskTrios/L2BB.jpg","null","",NA,NA,NA,NA,""
"image-keyboard-response",307,244564,"0.0-3.98-2.98","wl8mqz8bee2bqfa",980,"12.csv","","null","resources/images/coin2.png","null","",NA,NA,NA,NA,""
"image-keyboard-response",308,244871,"0.0-3.99-0.99","wl8mqz8bee2bqfa",980,"12.csv","","305","resources/trios/L2T1A2.jpg","37","restless",0.7,0.5,0.5,0.403947019018396,"true"
"image-keyboard-response",309,245282,"0.0-3.99-1.99","wl8mqz8bee2bqfa",980,"12.csv","","null","resources/maskTrios/L2BB.jpg","null","",NA,NA,NA,NA,""
"image-keyboard-response",310,246492,"0.0-3.99-2.99","wl8mqz8bee2bqfa",980,"12.csv","","null","resources/images/coin2.png","null","",NA,NA,NA,NA,""
"image-keyboard-response",311,246809,"0.0-3.100-0.100","wl8mqz8bee2bqfa",980,"12.csv","","315.9000000357628","resources/trios/L1T1A2.jpg","37","restless",0.7,0.5,0.5,0.405301249816558,"true"
"image-keyboard-response",312,247219,"0.0-3.100-1.100","wl8mqz8bee2bqfa",980,"12.csv","","null","resources/maskTrios/L1BB.jpg","null","",NA,NA,NA,NA,""
"image-keyboard-response",313,248426,"0.0-3.100-2.100","wl8mqz8bee2bqfa",980,"12.csv","","null","resources/images/coin2.png","null","",NA,NA,NA,NA,""
"image-keyboard-response",314,248829,"0.0-3.101-0.101","wl8mqz8bee2bqfa",980,"12.csv","","400.80000001192093","resources/trios/L1T1A1.jpg","37","restless",0.7,0.5,0.5,0.418084198308271,"true"
"image-keyboard-response",315,249232,"0.0-3.101-1.101","wl8mqz8bee2bqfa",980,"12.csv","","null","resources/maskTrios/L1BB.jpg","null","",NA,NA,NA,NA,""
"image-keyboard-response",316,250444,"0.0-3.101-2.101","wl8mqz8bee2bqfa",980,"12.csv","","null","resources/images/coin2.png","null","",NA,NA,NA,NA,""
"image-keyboard-response",317,251218,"0.0-3.102-0.102","wl8mqz8bee2bqfa",980,"12.csv","","772.0999999642372","resources/trios/L1T1A2.jpg","37","restless",0.7,0.5,0.5,0.301025920444196,"true"
"image-keyboard-response",318,251627,"0.0-3.102-1.102","wl8mqz8bee2bqfa",980,"12.csv","","null","resources/maskTrios/L1BB.jpg","null","",NA,NA,NA,NA,""
"image-keyboard-response",319,252832,"0.0-3.102-2.102","wl8mqz8bee2bqfa",980,"12.csv","","null","resources/images/coin2.png","null","",NA,NA,NA,NA,""
"image-keyboard-response",320,253114,"0.0-3.103-0.103","wl8mqz8bee2bqfa",980,"12.csv","","280.5","resources/trios/L2T1A1.jpg","37","restless",0.7,0.5,0.5,0.533818502405405,"true"
"image-keyboard-response",321,253521,"0.0-3.103-1.103","wl8mqz8bee2bqfa",980,"12.csv","","null","resources/maskTrios/L2BB.jpg","null","",NA,NA,NA,NA,""
"image-keyboard-response",322,254729,"0.0-3.103-2.103","wl8mqz8bee2bqfa",980,"12.csv","","null","resources/images/coin2.png","null","",NA,NA,NA,NA,""
"image-keyboard-response",323,254876,"0.0-3.104-0.104","wl8mqz8bee2bqfa",980,"12.csv","","146.19999998807907","resources/trios/L1T1A1.jpg","37","restless",0.7,0.5,0.6,0.0610581564008639,"true"
"image-keyboard-response",324,255281,"0.0-3.104-1.104","wl8mqz8bee2bqfa",980,"12.csv","","null","resources/maskTrios/L1BB.jpg","null","",NA,NA,NA,NA,""
"image-keyboard-response",325,256489,"0.0-3.104-2.104","wl8mqz8bee2bqfa",980,"12.csv","","null","resources/images/coin2.png","null","",NA,NA,NA,NA,""
"image-keyboard-response",326,256846,"0.0-3.105-0.105","wl8mqz8bee2bqfa",980,"12.csv","","354.9000000357628","resources/trios/L1T1A2.jpg","39","restless",0.7,0.5,0.6,0.18889027311935,"true"
"image-keyboard-response",327,257253,"0.0-3.105-1.105","wl8mqz8bee2bqfa",980,"12.csv","","null","resources/maskTrios/BBA2.jpg","null","",NA,NA,NA,NA,""
"image-keyboard-response",328,258459,"0.0-3.105-2.105","wl8mqz8bee2bqfa",980,"12.csv","","null","resources/images/coin2.png","null","",NA,NA,NA,NA,""
"image-keyboard-response",329,258698,"0.0-3.106-0.106","wl8mqz8bee2bqfa",980,"12.csv","","237.30000001192093","resources/trios/L2T4A1.jpg","39","restless",0.7,0.5,0.6,0.791182920318203,"false"
"image-keyboard-response",330,259109,"0.0-3.106-1.106","wl8mqz8bee2bqfa",980,"12.csv","","null","resources/maskTrios/BBA1.jpg","null","",NA,NA,NA,NA,""
"image-keyboard-response",331,260315,"0.0-3.106-2.106","wl8mqz8bee2bqfa",980,"12.csv","","null","resources/images/fishbone.png","null","",NA,NA,NA,NA,""
"image-keyboard-response",332,260551,"0.0-3.107-0.107","wl8mqz8bee2bqfa",980,"12.csv","","233.80000001192093","resources/trios/L1T1A2.jpg","37","restless",0.7,0.5,0.6,0.544215692448099,"true"
"image-keyboard-response",333,260960,"0.0-3.107-1.107","wl8mqz8bee2bqfa",980,"12.csv","","null","resources/maskTrios/L1BB.jpg","null","",NA,NA,NA,NA,""
"image-keyboard-response",334,262172,"0.0-3.107-2.107","wl8mqz8bee2bqfa",980,"12.csv","","null","resources/images/coin2.png","null","",NA,NA,NA,NA,""
"image-keyboard-response",335,262368,"0.0-3.108-0.108","wl8mqz8bee2bqfa",980,"12.csv","","194.60000002384186","resources/trios/L1T4A2.jpg","37","restless",0.7,0.5,0.5,0.901811289652906,"false"
"image-keyboard-response",336,262778,"0.0-3.108-1.108","wl8mqz8bee2bqfa",980,"12.csv","","null","resources/maskTrios/L1BB.jpg","null","",NA,NA,NA,NA,""
"image-keyboard-response",337,263985,"0.0-3.108-2.108","wl8mqz8bee2bqfa",980,"12.csv","","null","resources/images/fishbone.png","null","",NA,NA,NA,NA,""
"image-keyboard-response",338,264043,"0.0-3.109-0.109","wl8mqz8bee2bqfa",980,"12.csv","","56.90000003576279","resources/trios/L1T1A2.jpg","39","restless",0.7,0.5,0.5,0.0760961406914027,"true"
"image-keyboard-response",339,264453,"0.0-3.109-1.109","wl8mqz8bee2bqfa",980,"12.csv","","null","resources/maskTrios/BBA2.jpg","null","",NA,NA,NA,NA,""
"image-keyboard-response",340,265656,"0.0-3.109-2.109","wl8mqz8bee2bqfa",980,"12.csv","","null","resources/images/coin2.png","null","",NA,NA,NA,NA,""
"image-keyboard-response",341,266048,"0.0-3.110-0.110","wl8mqz8bee2bqfa",980,"12.csv","","390.60000002384186","resources/trios/L1T4A2.jpg","39","restless",0.7,0.5,0.5,0.183942099357306,"true"
"image-keyboard-response",342,266458,"0.0-3.110-1.110","wl8mqz8bee2bqfa",980,"12.csv","","null","resources/maskTrios/BBA2.jpg","null","",NA,NA,NA,NA,""
"image-keyboard-response",343,267664,"0.0-3.110-2.110","wl8mqz8bee2bqfa",980,"12.csv","","null","resources/images/coin2.png","null","",NA,NA,NA,NA,""
"image-keyboard-response",344,268054,"0.0-3.111-0.111","wl8mqz8bee2bqfa",980,"12.csv","","388.69999998807907","resources/trios/L2T4A2.jpg","39","restless",0.7,0.5,0.5,0.675241960316551,"false"
"image-keyboard-response",345,268459,"0.0-3.111-1.111","wl8mqz8bee2bqfa",980,"12.csv","","null","resources/maskTrios/BBA2.jpg","null","",NA,NA,NA,NA,""
"image-keyboard-response",346,269668,"0.0-3.111-2.111","wl8mqz8bee2bqfa",980,"12.csv","","null","resources/images/fishbone.png","null","",NA,NA,NA,NA,""
"image-keyboard-response",347,269874,"0.0-3.112-0.112","wl8mqz8bee2bqfa",980,"12.csv","","205.89999997615814","resources/trios/L2T1A2.jpg","38","restless",0.7,0.5,0.4,0.762137133076794,"false"
"image-keyboard-response",348,270281,"0.0-3.112-1.112","wl8mqz8bee2bqfa",980,"12.csv","","null","resources/maskTrios/BT1B.jpg","null","",NA,NA,NA,NA,""
"image-keyboard-response",349,271490,"0.0-3.112-2.112","wl8mqz8bee2bqfa",980,"12.csv","","null","resources/images/fishbone.png","null","",NA,NA,NA,NA,""
"image-keyboard-response",350,271499,"0.0-3.113-0.113","wl8mqz8bee2bqfa",980,"12.csv","","8.100000023841858","resources/trios/L1T4A1.jpg","37","restless",0.7,0.4,0.4,0.803421158235156,"false"
"image-keyboard-response",351,271904,"0.0-3.113-1.113","wl8mqz8bee2bqfa",980,"12.csv","","null","resources/maskTrios/L1BB.jpg","null","",NA,NA,NA,NA,""
"image-keyboard-response",352,273115,"0.0-3.113-2.113","wl8mqz8bee2bqfa",980,"12.csv","","null","resources/images/fishbone.png","null","",NA,NA,NA,NA,""
"image-keyboard-response",353,273371,"0.0-3.114-0.114","wl8mqz8bee2bqfa",980,"12.csv","","255.30000001192093","resources/trios/L2T4A2.jpg","37","restless",0.8,0.3,0.4,0.868538567501638,"false"
"image-keyboard-response",354,273776,"0.0-3.114-1.114","wl8mqz8bee2bqfa",980,"12.csv","","null","resources/maskTrios/L2BB.jpg","null","",NA,NA,NA,NA,""
"image-keyboard-response",355,274985,"0.0-3.114-2.114","wl8mqz8bee2bqfa",980,"12.csv","","null","resources/images/fishbone.png","null","",NA,NA,NA,NA,""
"image-keyboard-response",356,275432,"0.0-3.115-0.115","wl8mqz8bee2bqfa",980,"12.csv","","446.4000000357628","resources/trios/L1T1A2.jpg","39","restless",0.8,0.3,0.4,0.380066273342676,"true"
"image-keyboard-response",357,275842,"0.0-3.115-1.115","wl8mqz8bee2bqfa",980,"12.csv","","null","resources/maskTrios/BBA2.jpg","null","",NA,NA,NA,NA,""
"image-keyboard-response",358,277048,"0.0-3.115-2.115","wl8mqz8bee2bqfa",980,"12.csv","","null","resources/images/coin2.png","null","",NA,NA,NA,NA,""
"image-keyboard-response",359,277380,"0.0-3.116-0.116","wl8mqz8bee2bqfa",980,"12.csv","","331.0999999642372","resources/trios/L2T1A1.jpg","39","restless",0.8,0.3,0.4,0.950970189936742,"false"
"image-keyboard-response",360,277785,"0.0-3.116-1.116","wl8mqz8bee2bqfa",980,"12.csv","","null","resources/maskTrios/BBA1.jpg","null","",NA,NA,NA,NA,""
"image-keyboard-response",361,278994,"0.0-3.116-2.116","wl8mqz8bee2bqfa",980,"12.csv","","null","resources/images/fishbone.png","null","",NA,NA,NA,NA,""
"image-keyboard-response",362,279314,"0.0-3.117-0.117","wl8mqz8bee2bqfa",980,"12.csv","","318.5999999642372","resources/trios/L1T4A2.jpg","37","restless",0.8,0.3,0.4,0.302968100468484,"true"
"image-keyboard-response",363,279723,"0.0-3.117-1.117","wl8mqz8bee2bqfa",980,"12.csv","","null","resources/maskTrios/L1BB.jpg","null","",NA,NA,NA,NA,""
"image-keyboard-response",364,280933,"0.0-3.117-2.117","wl8mqz8bee2bqfa",980,"12.csv","","null","resources/images/coin2.png","null","",NA,NA,NA,NA,""
"image-keyboard-response",365,281199,"0.0-3.118-0.118","wl8mqz8bee2bqfa",980,"12.csv","","265.5","resources/trios/L2T1A1.jpg","38","restless",0.8,0.3,0.4,0.695174337797252,"false"
"image-keyboard-response",366,281605,"0.0-3.118-1.118","wl8mqz8bee2bqfa",980,"12.csv","","null","resources/maskTrios/BT1B.jpg","null","",NA,NA,NA,NA,""
"image-keyboard-response",367,282809,"0.0-3.118-2.118","wl8mqz8bee2bqfa",980,"12.csv","","null","resources/images/fishbone.png","null","",NA,NA,NA,NA,""
"image-keyboard-response",368,283069,"0.0-3.119-0.119","wl8mqz8bee2bqfa",980,"12.csv","","257.7999999523163","resources/trios/L1T1A1.jpg","37","restless",0.8,0.3,0.4,0.220298755554596,"true"
"image-keyboard-response",369,283474,"0.0-3.119-1.119","wl8mqz8bee2bqfa",980,"12.csv","","null","resources/maskTrios/L1BB.jpg","null","",NA,NA,NA,NA,""
"image-keyboard-response",370,284684,"0.0-3.119-2.119","wl8mqz8bee2bqfa",980,"12.csv","","null","resources/images/coin2.png","null","",NA,NA,NA,NA,""
"image-keyboard-response",371,284963,"0.0-3.120-0.120","wl8mqz8bee2bqfa",980,"12.csv","","278.19999998807907","resources/trios/L1T4A1.jpg","37","restless",0.8,0.3,0.4,0.270352397350374,"true"
"image-keyboard-response",372,285369,"0.0-3.120-1.120","wl8mqz8bee2bqfa",980,"12.csv","","null","resources/maskTrios/L1BB.jpg","null","",NA,NA,NA,NA,""
"image-keyboard-response",373,286577,"0.0-3.120-2.120","wl8mqz8bee2bqfa",980,"12.csv","","null","resources/images/coin2.png","null","",NA,NA,NA,NA,""
"image-keyboard-response",374,286795,"0.0-3.121-0.121","wl8mqz8bee2bqfa",980,"12.csv","","217.29999995231628","resources/trios/L1T1A2.jpg","37","restless",0.7,0.3,0.4,0.837392062987671,"false"
"image-keyboard-response",375,287201,"0.0-3.121-1.121","wl8mqz8bee2bqfa",980,"12.csv","","null","resources/maskTrios/L1BB.jpg","null","",NA,NA,NA,NA,""
"image-keyboard-response",376,288409,"0.0-3.121-2.121","wl8mqz8bee2bqfa",980,"12.csv","","null","resources/images/fishbone.png","null","",NA,NA,NA,NA,""
"image-keyboard-response",377,288813,"0.0-3.122-0.122","wl8mqz8bee2bqfa",980,"12.csv","","403.19999998807907","resources/trios/L2T4A1.jpg","38","restless",0.7,0.3,0.4,0.764449794323282,"false"
"image-keyboard-response",378,289217,"0.0-3.122-1.122","wl8mqz8bee2bqfa",980,"12.csv","","null","resources/maskTrios/BT4B.jpg","null","",NA,NA,NA,NA,""
"image-keyboard-response",379,290425,"0.0-3.122-2.122","wl8mqz8bee2bqfa",980,"12.csv","","null","resources/images/fishbone.png","null","",NA,NA,NA,NA,""
"image-keyboard-response",380,290519,"0.0-3.123-0.123","wl8mqz8bee2bqfa",980,"12.csv","","92.90000003576279","resources/trios/L1T1A2.jpg","37","restless",0.7,0.3,0.4,0.969464241422523,"false"
"image-keyboard-response",381,290924,"0.0-3.123-1.123","wl8mqz8bee2bqfa",980,"12.csv","","null","resources/maskTrios/L1BB.jpg","null","",NA,NA,NA,NA,""
"image-keyboard-response",382,292133,"0.0-3.123-2.123","wl8mqz8bee2bqfa",980,"12.csv","","null","resources/images/fishbone.png","null","",NA,NA,NA,NA,""
"image-keyboard-response",383,292247,"0.0-3.124-0.124","wl8mqz8bee2bqfa",980,"12.csv","","112.80000001192093","resources/trios/L2T1A2.jpg","39","restless",0.7,0.3,0.4,0.846285221988071,"false"
"image-keyboard-response",384,292650,"0.0-3.124-1.124","wl8mqz8bee2bqfa",980,"12.csv","","null","resources/maskTrios/BBA2.jpg","null","",NA,NA,NA,NA,""
"image-keyboard-response",385,293860,"0.0-3.124-2.124","wl8mqz8bee2bqfa",980,"12.csv","","null","resources/images/fishbone.png","null","",NA,NA,NA,NA,""
"image-keyboard-response",386,294014,"0.0-3.125-0.125","wl8mqz8bee2bqfa",980,"12.csv","","153.39999997615814","resources/trios/L1T4A2.jpg","39","restless",0.7,0.3,0.4,0.523727818731538,"false"
"image-keyboard-response",387,294417,"0.0-3.125-1.125","wl8mqz8bee2bqfa",980,"12.csv","","null","resources/maskTrios/BBA2.jpg","null","",NA,NA,NA,NA,""
"image-keyboard-response",388,295625,"0.0-3.125-2.125","wl8mqz8bee2bqfa",980,"12.csv","","null","resources/images/fishbone.png","null","",NA,NA,NA,NA,""
"image-keyboard-response",389,295655,"0.0-3.126-0.126","wl8mqz8bee2bqfa",980,"12.csv","","29.30000001192093","resources/trios/L1T1A1.jpg","38","restless",0.7,0.3,0.4,0.892200005307844,"false"
"image-keyboard-response",390,296057,"0.0-3.126-1.126","wl8mqz8bee2bqfa",980,"12.csv","","null","resources/maskTrios/BT1B.jpg","null","",NA,NA,NA,NA,""
"image-keyboard-response",391,297265,"0.0-3.126-2.126","wl8mqz8bee2bqfa",980,"12.csv","","null","resources/images/fishbone.png","null","",NA,NA,NA,NA,""
"image-keyboard-response",392,297350,"0.0-3.127-0.127","wl8mqz8bee2bqfa",980,"12.csv","","84","resources/trios/L2T4A1.jpg","38","restless",0.7,0.3,0.4,0.651117442768696,"false"
"image-keyboard-response",393,297754,"0.0-3.127-1.127","wl8mqz8bee2bqfa",980,"12.csv","","null","resources/maskTrios/BT4B.jpg","null","",NA,NA,NA,NA,""
"image-keyboard-response",394,298961,"0.0-3.127-2.127","wl8mqz8bee2bqfa",980,"12.csv","","null","resources/images/fishbone.png","null","",NA,NA,NA,NA,""
"image-keyboard-response",395,299152,"0.0-3.128-0.128","wl8mqz8bee2bqfa",980,"12.csv","","189.5","resources/trios/L2T1A2.jpg","37","restless",0.8,0.3,0.4,0.219844133335019,"true"
"image-keyboard-response",396,299563,"0.0-3.128-1.128","wl8mqz8bee2bqfa",980,"12.csv","","null","resources/maskTrios/L2BB.jpg","null","",NA,NA,NA,NA,""
"image-keyboard-response",397,300770,"0.0-3.128-2.128","wl8mqz8bee2bqfa",980,"12.csv","","null","resources/images/coin2.png","null","",NA,NA,NA,NA,""
"image-keyboard-response",398,301078,"0.0-3.129-0.129","wl8mqz8bee2bqfa",980,"12.csv","","306.5","resources/trios/L1T1A2.jpg","37","restless",0.7,0.3,0.5,0.359587458825178,"true"
"image-keyboard-response",399,301483,"0.0-3.129-1.129","wl8mqz8bee2bqfa",980,"12.csv","","null","resources/maskTrios/L1BB.jpg","null","",NA,NA,NA,NA,""
"image-keyboard-response",400,302689,"0.0-3.129-2.129","wl8mqz8bee2bqfa",980,"12.csv","","null","resources/images/coin2.png","null","",NA,NA,NA,NA,""
"image-keyboard-response",401,302921,"0.0-3.130-0.130","wl8mqz8bee2bqfa",980,"12.csv","","230.89999997615814","resources/trios/L2T4A2.jpg","37","restless",0.7,0.3,0.5,0.471542911808686,"true"
"image-keyboard-response",402,303333,"0.0-3.130-1.130","wl8mqz8bee2bqfa",980,"12.csv","","null","resources/maskTrios/L2BB.jpg","null","",NA,NA,NA,NA,""
"image-keyboard-response",403,304542,"0.0-3.130-2.130","wl8mqz8bee2bqfa",980,"12.csv","","null","resources/images/coin2.png","null","",NA,NA,NA,NA,""
"image-keyboard-response",404,304658,"0.0-3.131-0.131","wl8mqz8bee2bqfa",980,"12.csv","","114.80000001192093","resources/trios/L1T1A2.jpg","37","restless",0.7,0.3,0.5,0.0152096946058475,"true"
"image-keyboard-response",405,305070,"0.0-3.131-1.131","wl8mqz8bee2bqfa",980,"12.csv","","null","resources/maskTrios/L1BB.jpg","null","",NA,NA,NA,NA,""
"image-keyboard-response",406,306273,"0.0-3.131-2.131","wl8mqz8bee2bqfa",980,"12.csv","","null","resources/images/coin2.png","null","",NA,NA,NA,NA,""
"image-keyboard-response",407,306510,"0.0-3.132-0.132","wl8mqz8bee2bqfa",980,"12.csv","","235.19999998807907","resources/trios/L2T1A2.jpg","37","restless",0.7,0.3,0.5,0.891367570992035,"false"
"image-keyboard-response",408,306914,"0.0-3.132-1.132","wl8mqz8bee2bqfa",980,"12.csv","","null","resources/maskTrios/L2BB.jpg","null","",NA,NA,NA,NA,""
"image-keyboard-response",409,308123,"0.0-3.132-2.132","wl8mqz8bee2bqfa",980,"12.csv","","null","resources/images/fishbone.png","null","",NA,NA,NA,NA,""
"image-keyboard-response",410,308234,"0.0-3.133-0.133","wl8mqz8bee2bqfa",980,"12.csv","","109.40000003576279","resources/trios/L2T1A2.jpg","39","restless",0.7,0.3,0.5,0.868285409374141,"false"
"image-keyboard-response",411,308641,"0.0-3.133-1.133","wl8mqz8bee2bqfa",980,"12.csv","","null","resources/maskTrios/BBA2.jpg","null","",NA,NA,NA,NA,""
"image-keyboard-response",412,309849,"0.0-3.133-2.133","wl8mqz8bee2bqfa",980,"12.csv","","null","resources/images/fishbone.png","null","",NA,NA,NA,NA,""
"image-keyboard-response",413,309989,"0.0-3.134-0.134","wl8mqz8bee2bqfa",980,"12.csv","","139.39999997615814","resources/trios/L1T1A1.jpg","37","restless",0.6,0.3,0.5,0.244447295457346,"true"
"image-keyboard-response",414,310394,"0.0-3.134-1.134","wl8mqz8bee2bqfa",980,"12.csv","","null","resources/maskTrios/L1BB.jpg","null","",NA,NA,NA,NA,""
"image-keyboard-response",415,311606,"0.0-3.134-2.134","wl8mqz8bee2bqfa",980,"12.csv","","null","resources/images/coin2.png","null","",NA,NA,NA,NA,""
"image-keyboard-response",416,311754,"0.0-3.135-0.135","wl8mqz8bee2bqfa",980,"12.csv","","147.19999998807907","resources/trios/L1T1A1.jpg","37","restless",0.5,0.3,0.5,0.720581400966035,"false"
"image-keyboard-response",417,312162,"0.0-3.135-1.135","wl8mqz8bee2bqfa",980,"12.csv","","null","resources/maskTrios/L1BB.jpg","null","",NA,NA,NA,NA,""
"image-keyboard-response",418,313371,"0.0-3.135-2.135","wl8mqz8bee2bqfa",980,"12.csv","","null","resources/images/fishbone.png","null","",NA,NA,NA,NA,""
"image-keyboard-response",419,313481,"0.0-3.136-0.136","wl8mqz8bee2bqfa",980,"12.csv","","108.69999998807907","resources/trios/L1T1A2.jpg","38","restless",0.5,0.4,0.5,0.529364287400315,"false"
"image-keyboard-response",420,313889,"0.0-3.136-1.136","wl8mqz8bee2bqfa",980,"12.csv","","null","resources/maskTrios/BT1B.jpg","null","",NA,NA,NA,NA,""
"image-keyboard-response",421,315100,"0.0-3.136-2.136","wl8mqz8bee2bqfa",980,"12.csv","","null","resources/images/fishbone.png","null","",NA,NA,NA,NA,""
"image-keyboard-response",422,315301,"0.0-3.137-0.137","wl8mqz8bee2bqfa",980,"12.csv","","199.69999998807907","resources/trios/L1T4A2.jpg","39","restless",0.5,0.4,0.5,0.0528234913623842,"true"
"image-keyboard-response",423,315706,"0.0-3.137-1.137","wl8mqz8bee2bqfa",980,"12.csv","","null","resources/maskTrios/BBA2.jpg","null","",NA,NA,NA,NA,""
"image-keyboard-response",424,316915,"0.0-3.137-2.137","wl8mqz8bee2bqfa",980,"12.csv","","null","resources/images/coin2.png","null","",NA,NA,NA,NA,""
"image-keyboard-response",425,317032,"0.0-3.138-0.138","wl8mqz8bee2bqfa",980,"12.csv","","116.10000002384186","resources/trios/L2T1A1.jpg","39","restless",0.5,0.4,0.5,0.368253549299404,"true"
"image-keyboard-response",426,317434,"0.0-3.138-1.138","wl8mqz8bee2bqfa",980,"12.csv","","null","resources/maskTrios/BBA1.jpg","null","",NA,NA,NA,NA,""
"image-keyboard-response",427,318643,"0.0-3.138-2.138","wl8mqz8bee2bqfa",980,"12.csv","","null","resources/images/coin2.png","null","",NA,NA,NA,NA,""
"image-keyboard-response",428,318937,"0.0-3.139-0.139","wl8mqz8bee2bqfa",980,"12.csv","","293","resources/trios/L2T1A1.jpg","39","restless",0.5,0.3,0.5,0.754078078065571,"false"
"image-keyboard-response",429,319349,"0.0-3.139-1.139","wl8mqz8bee2bqfa",980,"12.csv","","null","resources/maskTrios/BBA1.jpg","null","",NA,NA,NA,NA,""
"image-keyboard-response",430,320558,"0.0-3.139-2.139","wl8mqz8bee2bqfa",980,"12.csv","","null","resources/images/fishbone.png","null","",NA,NA,NA,NA,""
"image-keyboard-response",431,320833,"0.0-3.140-0.140","wl8mqz8bee2bqfa",980,"12.csv","","274.30000001192093","resources/trios/L2T4A2.jpg","37","restless",0.5,0.2,0.6,0.675299038723776,"false"
"image-keyboard-response",432,321243,"0.0-3.140-1.140","wl8mqz8bee2bqfa",980,"12.csv","","null","resources/maskTrios/L2BB.jpg","null","",NA,NA,NA,NA,""
"image-keyboard-response",433,322453,"0.0-3.140-2.140","wl8mqz8bee2bqfa",980,"12.csv","","null","resources/images/fishbone.png","null","",NA,NA,NA,NA,""
"image-keyboard-response",434,322572,"0.0-3.141-0.141","wl8mqz8bee2bqfa",980,"12.csv","","118","resources/trios/L2T1A1.jpg","37","restless",0.5,0.2,0.6,0.375215188744754,"true"
"image-keyboard-response",435,322981,"0.0-3.141-1.141","wl8mqz8bee2bqfa",980,"12.csv","","null","resources/maskTrios/L2BB.jpg","null","",NA,NA,NA,NA,""
"image-keyboard-response",436,324187,"0.0-3.141-2.141","wl8mqz8bee2bqfa",980,"12.csv","","null","resources/images/coin2.png","null","",NA,NA,NA,NA,""
"image-keyboard-response",437,324465,"0.0-3.142-0.142","wl8mqz8bee2bqfa",980,"12.csv","","277.39999997615814","resources/trios/L2T4A1.jpg","37","restless",0.5,0.2,0.6,0.692752896987566,"false"
"image-keyboard-response",438,324866,"0.0-3.142-1.142","wl8mqz8bee2bqfa",980,"12.csv","","null","resources/maskTrios/L2BB.jpg","null","",NA,NA,NA,NA,""
"image-keyboard-response",439,326074,"0.0-3.142-2.142","wl8mqz8bee2bqfa",980,"12.csv","","null","resources/images/fishbone.png","null","",NA,NA,NA,NA,""
"image-keyboard-response",440,326185,"0.0-3.143-0.143","wl8mqz8bee2bqfa",980,"12.csv","","109.29999995231628","resources/trios/L2T4A1.jpg","37","restless",0.5,0.2,0.5,0.671990350562371,"false"
"image-keyboard-response",441,326587,"0.0-3.143-1.143","wl8mqz8bee2bqfa",980,"12.csv","","null","resources/maskTrios/L2BB.jpg","null","",NA,NA,NA,NA,""
"image-keyboard-response",442,327796,"0.0-3.143-2.143","wl8mqz8bee2bqfa",980,"12.csv","","null","resources/images/fishbone.png","null","",NA,NA,NA,NA,""
"image-keyboard-response",443,327953,"0.0-3.144-0.144","wl8mqz8bee2bqfa",980,"12.csv","","156.39999997615814","resources/trios/L2T4A1.jpg","39","restless",0.5,0.2,0.4,0.239403502381958,"true"
"image-keyboard-response",444,328364,"0.0-3.144-1.144","wl8mqz8bee2bqfa",980,"12.csv","","null","resources/maskTrios/BBA1.jpg","null","",NA,NA,NA,NA,""
"image-keyboard-response",445,329572,"0.0-3.144-2.144","wl8mqz8bee2bqfa",980,"12.csv","","null","resources/images/coin2.png","null","",NA,NA,NA,NA,""
"image-keyboard-response",446,329713,"0.0-3.145-0.145","wl8mqz8bee2bqfa",980,"12.csv","","140.5999999642372","resources/trios/L2T1A1.jpg","39","restless",0.5,0.2,0.5,0.59215727903338,"false"
"image-keyboard-response",447,330125,"0.0-3.145-1.145","wl8mqz8bee2bqfa",980,"12.csv","","null","resources/maskTrios/BBA1.jpg","null","",NA,NA,NA,NA,""
"image-keyboard-response",448,331334,"0.0-3.145-2.145","wl8mqz8bee2bqfa",980,"12.csv","","null","resources/images/fishbone.png","null","",NA,NA,NA,NA,""
"image-keyboard-response",449,331485,"0.0-3.146-0.146","wl8mqz8bee2bqfa",980,"12.csv","","149.69999998807907","resources/trios/L1T4A1.jpg","38","restless",0.5,0.2,0.5,0.998019140238136,"false"
"image-keyboard-response",450,331895,"0.0-3.146-1.146","wl8mqz8bee2bqfa",980,"12.csv","","null","resources/maskTrios/BT4B.jpg","null","",NA,NA,NA,NA,""
"image-keyboard-response",451,333099,"0.0-3.146-2.146","wl8mqz8bee2bqfa",980,"12.csv","","null","resources/images/fishbone.png","null","",NA,NA,NA,NA,""
"image-keyboard-response",452,333286,"0.0-3.147-0.147","wl8mqz8bee2bqfa",980,"12.csv","","186.10000002384186","resources/trios/L1T1A2.jpg","37","restless",0.5,0.2,0.5,0.682519555321711,"false"
"image-keyboard-response",453,333690,"0.0-3.147-1.147","wl8mqz8bee2bqfa",980,"12.csv","","null","resources/maskTrios/L1BB.jpg","null","",NA,NA,NA,NA,""
"image-keyboard-response",454,334898,"0.0-3.147-2.147","wl8mqz8bee2bqfa",980,"12.csv","","null","resources/images/fishbone.png","null","",NA,NA,NA,NA,""
"image-keyboard-response",455,334995,"0.0-3.148-0.148","wl8mqz8bee2bqfa",980,"12.csv","","96.60000002384186","resources/trios/L2T4A1.jpg","38","restless",0.5,0.2,0.5,0.365936441050332,"false"
"image-keyboard-response",456,335407,"0.0-3.148-1.148","wl8mqz8bee2bqfa",980,"12.csv","","null","resources/maskTrios/BT4B.jpg","null","",NA,NA,NA,NA,""
"image-keyboard-response",457,336615,"0.0-3.148-2.148","wl8mqz8bee2bqfa",980,"12.csv","","null","resources/images/fishbone.png","null","",NA,NA,NA,NA,""
"image-keyboard-response",458,336627,"0.0-3.149-0.149","wl8mqz8bee2bqfa",980,"12.csv","","11.300000011920929","resources/trios/L1T4A2.jpg","39","restless",0.5,0.2,0.5,0.880855755344669,"false"
"image-keyboard-response",459,337034,"0.0-3.149-1.149","wl8mqz8bee2bqfa",980,"12.csv","","null","resources/maskTrios/BBA2.jpg","null","",NA,NA,NA,NA,""
"image-keyboard-response",460,338243,"0.0-3.149-2.149","wl8mqz8bee2bqfa",980,"12.csv","","null","resources/images/fishbone.png","null","",NA,NA,NA,NA,""
"image-keyboard-response",461,338434,"0.0-3.150-0.150","wl8mqz8bee2bqfa",980,"12.csv","","189.80000001192093","resources/trios/L2T4A2.jpg","38","restless",0.5,0.2,0.5,0.605629071626338,"false"
"image-keyboard-response",462,338843,"0.0-3.150-1.150","wl8mqz8bee2bqfa",980,"12.csv","","null","resources/maskTrios/BT4B.jpg","null","",NA,NA,NA,NA,""
"image-keyboard-response",463,340052,"0.0-3.150-2.150","wl8mqz8bee2bqfa",980,"12.csv","","null","resources/images/fishbone.png","null","",NA,NA,NA,NA,""
"image-keyboard-response",464,340197,"0.0-3.151-0.151","wl8mqz8bee2bqfa",980,"12.csv","","144.80000001192093","resources/trios/L2T4A2.jpg","37","restless",0.5,0.2,0.5,0.771092035500127,"false"
"image-keyboard-response",465,340607,"0.0-3.151-1.151","wl8mqz8bee2bqfa",980,"12.csv","","null","resources/maskTrios/L2BB.jpg","null","",NA,NA,NA,NA,""
"image-keyboard-response",466,341815,"0.0-3.151-2.151","wl8mqz8bee2bqfa",980,"12.csv","","null","resources/images/fishbone.png","null","",NA,NA,NA,NA,""
"image-keyboard-response",467,345383,"0.0-3.152-0.152","wl8mqz8bee2bqfa",980,"12.csv","","3567.400000035763","resources/trios/L2T1A2.jpg","37","restless",0.5,0.2,0.5,0.7558129774412,"false"
"image-keyboard-response",468,345788,"0.0-3.152-1.152","wl8mqz8bee2bqfa",980,"12.csv","","null","resources/maskTrios/L2BB.jpg","null","",NA,NA,NA,NA,""
"image-keyboard-response",469,346994,"0.0-3.152-2.152","wl8mqz8bee2bqfa",980,"12.csv","","null","resources/images/fishbone.png","null","",NA,NA,NA,NA,""
"image-keyboard-response",470,347111,"0.0-3.153-0.153","wl8mqz8bee2bqfa",980,"12.csv","","114.60000002384186","resources/trios/L1T4A1.jpg","37","restless",0.5,0.2,0.5,0.0222331183858255,"true"
"image-keyboard-response",471,347515,"0.0-3.153-1.153","wl8mqz8bee2bqfa",980,"12.csv","","null","resources/maskTrios/L1BB.jpg","null","",NA,NA,NA,NA,""
"image-keyboard-response",472,348723,"0.0-3.153-2.153","wl8mqz8bee2bqfa",980,"12.csv","","null","resources/images/coin2.png","null","",NA,NA,NA,NA,""
"image-keyboard-response",473,348803,"0.0-3.154-0.154","wl8mqz8bee2bqfa",980,"12.csv","","78.19999998807907","resources/trios/L2T4A1.jpg","37","restless",0.5,0.2,0.5,0.113770085181143,"true"
"image-keyboard-response",474,349216,"0.0-3.154-1.154","wl8mqz8bee2bqfa",980,"12.csv","","null","resources/maskTrios/L2BB.jpg","null","",NA,NA,NA,NA,""
"image-keyboard-response",475,350420,"0.0-3.154-2.154","wl8mqz8bee2bqfa",980,"12.csv","","null","resources/images/coin2.png","null","",NA,NA,NA,NA,""
"image-keyboard-response",476,350750,"0.0-3.155-0.155","wl8mqz8bee2bqfa",980,"12.csv","","327.19999998807907","resources/trios/L2T4A2.jpg","37","restless",0.4,0.3,0.5,0.174315893722988,"true"
"image-keyboard-response",477,351155,"0.0-3.155-1.155","wl8mqz8bee2bqfa",980,"12.csv","","null","resources/maskTrios/L2BB.jpg","null","",NA,NA,NA,NA,""
"image-keyboard-response",478,352366,"0.0-3.155-2.155","wl8mqz8bee2bqfa",980,"12.csv","","null","resources/images/coin2.png","null","",NA,NA,NA,NA,""
"image-keyboard-response",479,352445,"0.0-3.156-0.156","wl8mqz8bee2bqfa",980,"12.csv","","77.59999996423721","resources/trios/L2T4A1.jpg","37","restless",0.4,0.3,0.5,0.400801763695804,"false"
"image-keyboard-response",480,352856,"0.0-3.156-1.156","wl8mqz8bee2bqfa",980,"12.csv","","null","resources/maskTrios/L2BB.jpg","null","",NA,NA,NA,NA,""
"image-keyboard-response",481,354060,"0.0-3.156-2.156","wl8mqz8bee2bqfa",980,"12.csv","","null","resources/images/fishbone.png","null","",NA,NA,NA,NA,""
"image-keyboard-response",482,354080,"0.0-3.157-0.157","wl8mqz8bee2bqfa",980,"12.csv","","17.600000023841858","resources/trios/L1T4A1.jpg","37","restless",0.4,0.3,0.5,0.791630094264299,"false"
"image-keyboard-response",483,354484,"0.0-3.157-1.157","wl8mqz8bee2bqfa",980,"12.csv","","null","resources/maskTrios/L1BB.jpg","null","",NA,NA,NA,NA,""
"image-keyboard-response",484,355696,"0.0-3.157-2.157","wl8mqz8bee2bqfa",980,"12.csv","","null","resources/images/fishbone.png","null","",NA,NA,NA,NA,""
"image-keyboard-response",485,355819,"0.0-3.158-0.158","wl8mqz8bee2bqfa",980,"12.csv","","121.60000002384186","resources/trios/L2T4A2.jpg","37","restless",0.4,0.3,0.5,0.851253929656488,"false"
"image-keyboard-response",486,356232,"0.0-3.158-1.158","wl8mqz8bee2bqfa",980,"12.csv","","null","resources/maskTrios/L2BB.jpg","null","",NA,NA,NA,NA,""
"image-keyboard-response",487,357435,"0.0-3.158-2.158","wl8mqz8bee2bqfa",980,"12.csv","","null","resources/images/fishbone.png","null","",NA,NA,NA,NA,""
"image-keyboard-response",488,357468,"0.0-3.159-0.159","wl8mqz8bee2bqfa",980,"12.csv","","31.600000023841858","resources/trios/L1T1A2.jpg","38","restless",0.3,0.3,0.5,0.0243136364171153,"true"
"image-keyboard-response",489,357880,"0.0-3.159-1.159","wl8mqz8bee2bqfa",980,"12.csv","","null","resources/maskTrios/BT1B.jpg","null","",NA,NA,NA,NA,""
"image-keyboard-response",490,359085,"0.0-3.159-2.159","wl8mqz8bee2bqfa",980,"12.csv","","null","resources/images/coin2.png","null","",NA,NA,NA,NA,""
"image-keyboard-response",491,359180,"0.0-3.160-0.160","wl8mqz8bee2bqfa",980,"12.csv","","93.5","resources/trios/L1T4A2.jpg","38","restless",0.3,0.3,0.5,0.678276137554542,"false"
"image-keyboard-response",492,359592,"0.0-3.160-1.160","wl8mqz8bee2bqfa",980,"12.csv","","null","resources/maskTrios/BT4B.jpg","null","",NA,NA,NA,NA,""
"image-keyboard-response",493,360798,"0.0-3.160-2.160","wl8mqz8bee2bqfa",980,"12.csv","","null","resources/images/fishbone.png","null","",NA,NA,NA,NA,""
"image-keyboard-response",494,360895,"0.0-3.161-0.161","wl8mqz8bee2bqfa",980,"12.csv","","95.70000004768372","resources/trios/L2T4A1.jpg","39","restless",0.3,0.3,0.5,0.556735587994869,"false"
"image-keyboard-response",495,361304,"0.0-3.161-1.161","wl8mqz8bee2bqfa",980,"12.csv","","null","resources/maskTrios/BBA1.jpg","null","",NA,NA,NA,NA,""
"image-keyboard-response",496,362508,"0.0-3.161-2.161","wl8mqz8bee2bqfa",980,"12.csv","","null","resources/images/fishbone.png","null","",NA,NA,NA,NA,""
"image-keyboard-response",497,362617,"0.0-3.162-0.162","wl8mqz8bee2bqfa",980,"12.csv","","107","resources/trios/L1T4A2.jpg","37","restless",0.3,0.4,0.5,0.894391584059073,"false"
"image-keyboard-response",498,363023,"0.0-3.162-1.162","wl8mqz8bee2bqfa",980,"12.csv","","null","resources/maskTrios/L1BB.jpg","null","",NA,NA,NA,NA,""
"image-keyboard-response",499,364228,"0.0-3.162-2.162","wl8mqz8bee2bqfa",980,"12.csv","","null","resources/images/fishbone.png","null","",NA,NA,NA,NA,""
"image-keyboard-response",500,364285,"0.0-3.163-0.163","wl8mqz8bee2bqfa",980,"12.csv","","55.60000002384186","resources/trios/L2T1A2.jpg","37","restless",0.4,0.4,0.5,0.192852506009016,"true"
"image-keyboard-response",501,364693,"0.0-3.163-1.163","wl8mqz8bee2bqfa",980,"12.csv","","null","resources/maskTrios/L2BB.jpg","null","",NA,NA,NA,NA,""
"image-keyboard-response",502,365903,"0.0-3.163-2.163","wl8mqz8bee2bqfa",980,"12.csv","","null","resources/images/coin2.png","null","",NA,NA,NA,NA,""
"image-keyboard-response",503,366068,"0.0-3.164-0.164","wl8mqz8bee2bqfa",980,"12.csv","","163.0999999642372","resources/trios/L2T4A2.jpg","37","restless",0.4,0.4,0.6,0.153751791227412,"true"
"image-keyboard-response",504,366476,"0.0-3.164-1.164","wl8mqz8bee2bqfa",980,"12.csv","","null","resources/maskTrios/L2BB.jpg","null","",NA,NA,NA,NA,""
"image-keyboard-response",505,367688,"0.0-3.164-2.164","wl8mqz8bee2bqfa",980,"12.csv","","null","resources/images/coin2.png","null","",NA,NA,NA,NA,""
"image-keyboard-response",506,367882,"0.0-3.165-0.165","wl8mqz8bee2bqfa",980,"12.csv","","192.0999999642372","resources/trios/L1T1A1.jpg","37","restless",0.4,0.4,0.6,0.819171377660442,"false"
"image-keyboard-response",507,368293,"0.0-3.165-1.165","wl8mqz8bee2bqfa",980,"12.csv","","null","resources/maskTrios/L1BB.jpg","null","",NA,NA,NA,NA,""
"image-keyboard-response",508,369501,"0.0-3.165-2.165","wl8mqz8bee2bqfa",980,"12.csv","","null","resources/images/fishbone.png","null","",NA,NA,NA,NA,""
"image-keyboard-response",509,369502,"0.0-3.166-0.166","wl8mqz8bee2bqfa",980,"12.csv","","0.20000004768371582","resources/trios/L2T1A2.jpg","38","restless",0.4,0.4,0.6,0.341085597013942,"true"
"image-keyboard-response",510,369912,"0.0-3.166-1.166","wl8mqz8bee2bqfa",980,"12.csv","","null","resources/maskTrios/BT1B.jpg","null","",NA,NA,NA,NA,""
"image-keyboard-response",511,371116,"0.0-3.166-2.166","wl8mqz8bee2bqfa",980,"12.csv","","null","resources/images/coin2.png","null","",NA,NA,NA,NA,""
"image-keyboard-response",512,371482,"0.0-3.167-0.167","wl8mqz8bee2bqfa",980,"12.csv","","364.10000002384186","resources/trios/L2T4A2.jpg","39","restless",0.4,0.5,0.6,0.432400912035329,"true"
"image-keyboard-response",513,371893,"0.0-3.167-1.167","wl8mqz8bee2bqfa",980,"12.csv","","null","resources/maskTrios/BBA2.jpg","null","",NA,NA,NA,NA,""
"image-keyboard-response",514,373104,"0.0-3.167-2.167","wl8mqz8bee2bqfa",980,"12.csv","","null","resources/images/coin2.png","null","",NA,NA,NA,NA,""
"image-keyboard-response",515,373187,"0.0-3.168-0.168","wl8mqz8bee2bqfa",980,"12.csv","","80.69999998807907","resources/trios/L1T1A2.jpg","38","restless",0.4,0.5,0.6,0.755786418552139,"false"
"image-keyboard-response",516,373599,"0.0-3.168-1.168","wl8mqz8bee2bqfa",980,"12.csv","","null","resources/maskTrios/BT1B.jpg","null","",NA,NA,NA,NA,""
"image-keyboard-response",517,374808,"0.0-3.168-2.168","wl8mqz8bee2bqfa",980,"12.csv","","null","resources/images/fishbone.png","null","",NA,NA,NA,NA,""
"image-keyboard-response",518,374844,"0.0-3.169-0.169","wl8mqz8bee2bqfa",980,"12.csv","","34.60000002384186","resources/trios/L2T1A2.jpg","39","restless",0.4,0.5,0.6,0.635714736798864,"false"
"image-keyboard-response",519,375256,"0.0-3.169-1.169","wl8mqz8bee2bqfa",980,"12.csv","","null","resources/maskTrios/BBA2.jpg","null","",NA,NA,NA,NA,""
"image-keyboard-response",520,376460,"0.0-3.169-2.169","wl8mqz8bee2bqfa",980,"12.csv","","null","resources/images/fishbone.png","null","",NA,NA,NA,NA,""
"image-keyboard-response",521,376516,"0.0-3.170-0.170","wl8mqz8bee2bqfa",980,"12.csv","","51.69999998807907","resources/trios/L1T4A2.jpg","37","restless",0.4,0.5,0.6,0.98857811377386,"false"
"image-keyboard-response",522,376925,"0.0-3.170-1.170","wl8mqz8bee2bqfa",980,"12.csv","","null","resources/maskTrios/L1BB.jpg","null","",NA,NA,NA,NA,""
"image-keyboard-response",523,378136,"0.0-3.170-2.170","wl8mqz8bee2bqfa",980,"12.csv","","null","resources/images/fishbone.png","null","",NA,NA,NA,NA,""
"image-keyboard-response",524,378220,"0.0-3.171-0.171","wl8mqz8bee2bqfa",980,"12.csv","","82.29999995231628","resources/trios/L1T4A2.jpg","37","restless",0.4,0.5,0.6,0.179792023126675,"true"
"image-keyboard-response",525,378628,"0.0-3.171-1.171","wl8mqz8bee2bqfa",980,"12.csv","","null","resources/maskTrios/L1BB.jpg","null","",NA,NA,NA,NA,""
"image-keyboard-response",526,379832,"0.0-3.171-2.171","wl8mqz8bee2bqfa",980,"12.csv","","null","resources/images/coin2.png","null","",NA,NA,NA,NA,""
"image-keyboard-response",527,380038,"0.0-3.172-0.172","wl8mqz8bee2bqfa",980,"12.csv","","205","resources/trios/L1T4A1.jpg","37","restless",0.4,0.5,0.6,0.428840325859029,"false"
"image-keyboard-response",528,380444,"0.0-3.172-1.172","wl8mqz8bee2bqfa",980,"12.csv","","null","resources/maskTrios/L1BB.jpg","null","",NA,NA,NA,NA,""
"image-keyboard-response",529,381654,"0.0-3.172-2.172","wl8mqz8bee2bqfa",980,"12.csv","","null","resources/images/fishbone.png","null","",NA,NA,NA,NA,""
"image-keyboard-response",530,381815,"0.0-3.173-0.173","wl8mqz8bee2bqfa",980,"12.csv","","159.10000002384186","resources/trios/L1T4A1.jpg","38","restless",0.4,0.5,0.6,0.585071185910785,"false"
"image-keyboard-response",531,382223,"0.0-3.173-1.173","wl8mqz8bee2bqfa",980,"12.csv","","null","resources/maskTrios/BT4B.jpg","null","",NA,NA,NA,NA,""
"image-keyboard-response",532,383429,"0.0-3.173-2.173","wl8mqz8bee2bqfa",980,"12.csv","","null","resources/images/fishbone.png","null","",NA,NA,NA,NA,""
"image-keyboard-response",533,383447,"0.0-3.174-0.174","wl8mqz8bee2bqfa",980,"12.csv","","16.399999976158142","resources/trios/L2T1A1.jpg","38","restless",0.4,0.5,0.6,0.949627345843352,"false"
"image-keyboard-response",534,383857,"0.0-3.174-1.174","wl8mqz8bee2bqfa",980,"12.csv","","null","resources/maskTrios/BT1B.jpg","null","",NA,NA,NA,NA,""
"image-keyboard-response",535,385065,"0.0-3.174-2.174","wl8mqz8bee2bqfa",980,"12.csv","","null","resources/images/fishbone.png","null","",NA,NA,NA,NA,""
"image-keyboard-response",536,387521,"0.0-3.175-0.175","wl8mqz8bee2bqfa",980,"12.csv","","2454.699999988079","resources/trios/L2T1A1.jpg","39","restless",0.4,0.5,0.6,0.341694266183364,"true"
"image-keyboard-response",537,387927,"0.0-3.175-1.175","wl8mqz8bee2bqfa",980,"12.csv","","null","resources/maskTrios/BBA1.jpg","null","",NA,NA,NA,NA,""
"image-keyboard-response",538,389136,"0.0-3.175-2.175","wl8mqz8bee2bqfa",980,"12.csv","","null","resources/images/coin2.png","null","",NA,NA,NA,NA,""
"image-keyboard-response",539,389671,"0.0-3.176-0.176","wl8mqz8bee2bqfa",980,"12.csv","","533.5999999642372","resources/trios/L2T4A2.jpg","37","restless",0.4,0.5,0.6,0.0344352535051013,"true"
"image-keyboard-response",540,390076,"0.0-3.176-1.176","wl8mqz8bee2bqfa",980,"12.csv","","null","resources/maskTrios/L2BB.jpg","null","",NA,NA,NA,NA,""
"image-keyboard-response",541,391286,"0.0-3.176-2.176","wl8mqz8bee2bqfa",980,"12.csv","","null","resources/images/coin2.png","null","",NA,NA,NA,NA,""
"image-keyboard-response",542,391740,"0.0-3.177-0.177","wl8mqz8bee2bqfa",980,"12.csv","","452.30000001192093","resources/trios/L1T1A1.jpg","37","restless",0.4,0.5,0.6,0.558799849580364,"false"
"image-keyboard-response",543,392149,"0.0-3.177-1.177","wl8mqz8bee2bqfa",980,"12.csv","","null","resources/maskTrios/L1BB.jpg","null","",NA,NA,NA,NA,""
"image-keyboard-response",544,393361,"0.0-3.177-2.177","wl8mqz8bee2bqfa",980,"12.csv","","null","resources/images/fishbone.png","null","",NA,NA,NA,NA,""
"image-keyboard-response",545,393910,"0.0-3.178-0.178","wl8mqz8bee2bqfa",980,"12.csv","","548.4000000357628","resources/trios/L2T1A1.jpg","39","restless",0.4,0.5,0.6,0.0564637684999654,"true"
"image-keyboard-response",546,394317,"0.0-3.178-1.178","wl8mqz8bee2bqfa",980,"12.csv","","null","resources/maskTrios/BBA1.jpg","null","",NA,NA,NA,NA,""
"image-keyboard-response",547,395528,"0.0-3.178-2.178","wl8mqz8bee2bqfa",980,"12.csv","","null","resources/images/coin2.png","null","",NA,NA,NA,NA,""
"image-keyboard-response",548,396226,"0.0-3.179-0.179","wl8mqz8bee2bqfa",980,"12.csv","","695.7999999523163","resources/trios/L2T1A2.jpg","39","restless",0.4,0.5,0.6,0.216762778085299,"true"
"image-keyboard-response",549,396629,"0.0-3.179-1.179","wl8mqz8bee2bqfa",980,"12.csv","","null","resources/maskTrios/BBA2.jpg","null","",NA,NA,NA,NA,""
"image-keyboard-response",550,397836,"0.0-3.179-2.179","wl8mqz8bee2bqfa",980,"12.csv","","null","resources/images/coin2.png","null","",NA,NA,NA,NA,""
"image-keyboard-response",551,398469,"0.0-3.180-0.180","wl8mqz8bee2bqfa",980,"12.csv","","632","resources/trios/L2T4A2.jpg","38","restless",0.4,0.5,0.6,0.960480685979437,"false"
"image-keyboard-response",552,398879,"0.0-3.180-1.180","wl8mqz8bee2bqfa",980,"12.csv","","null","resources/maskTrios/BT4B.jpg","null","",NA,NA,NA,NA,""
"image-keyboard-response",553,400086,"0.0-3.180-2.180","wl8mqz8bee2bqfa",980,"12.csv","","null","resources/images/fishbone.png","null","",NA,NA,NA,NA,""
"image-keyboard-response",554,400859,"0.0-3.181-0.181","wl8mqz8bee2bqfa",980,"12.csv","","771.3999999761581","resources/trios/L1T4A2.jpg","38","restless",0.4,0.5,0.6,0.221160392759184,"true"
"image-keyboard-response",555,401270,"0.0-3.181-1.181","wl8mqz8bee2bqfa",980,"12.csv","","null","resources/maskTrios/BT4B.jpg","null","",NA,NA,NA,NA,""
"image-keyboard-response",556,402477,"0.0-3.181-2.181","wl8mqz8bee2bqfa",980,"12.csv","","null","resources/images/coin2.png","null","",NA,NA,NA,NA,""
"image-keyboard-response",557,402912,"0.0-3.182-0.182","wl8mqz8bee2bqfa",980,"12.csv","","433.60000002384186","resources/trios/L2T4A1.jpg","38","restless",0.4,0.5,0.6,0.336530780089857,"true"
"image-keyboard-response",558,403319,"0.0-3.182-1.182","wl8mqz8bee2bqfa",980,"12.csv","","null","resources/maskTrios/BT4B.jpg","null","",NA,NA,NA,NA,""
"image-keyboard-response",559,404525,"0.0-3.182-2.182","wl8mqz8bee2bqfa",980,"12.csv","","null","resources/images/coin2.png","null","",NA,NA,NA,NA,""
"image-keyboard-response",560,404816,"0.0-3.183-0.183","wl8mqz8bee2bqfa",980,"12.csv","","289.69999998807907","resources/trios/L2T1A2.jpg","38","restless",0.4,0.4,0.7,0.501622213632794,"false"
"image-keyboard-response",561,405224,"0.0-3.183-1.183","wl8mqz8bee2bqfa",980,"12.csv","","null","resources/maskTrios/BT1B.jpg","null","",NA,NA,NA,NA,""
"image-keyboard-response",562,406429,"0.0-3.183-2.183","wl8mqz8bee2bqfa",980,"12.csv","","null","resources/images/fishbone.png","null","",NA,NA,NA,NA,""
"image-keyboard-response",563,406753,"0.0-3.184-0.184","wl8mqz8bee2bqfa",980,"12.csv","","322.5","resources/trios/L1T1A1.jpg","39","restless",0.4,0.4,0.7,0.690199651043917,"true"
"image-keyboard-response",564,407161,"0.0-3.184-1.184","wl8mqz8bee2bqfa",980,"12.csv","","null","resources/maskTrios/BBA1.jpg","null","",NA,NA,NA,NA,""
"image-keyboard-response",565,408365,"0.0-3.184-2.184","wl8mqz8bee2bqfa",980,"12.csv","","null","resources/images/coin2.png","null","",NA,NA,NA,NA,""
"image-keyboard-response",566,408788,"0.0-3.185-0.185","wl8mqz8bee2bqfa",980,"12.csv","","420.5999999642372","resources/trios/L2T4A1.jpg","39","restless",0.4,0.4,0.7,0.745054439566534,"false"
"image-keyboard-response",567,409201,"0.0-3.185-1.185","wl8mqz8bee2bqfa",980,"12.csv","","null","resources/maskTrios/BBA1.jpg","null","",NA,NA,NA,NA,""
"image-keyboard-response",568,410409,"0.0-3.185-2.185","wl8mqz8bee2bqfa",980,"12.csv","","null","resources/images/fishbone.png","null","",NA,NA,NA,NA,""
"image-keyboard-response",569,412682,"0.0-3.186-0.186","wl8mqz8bee2bqfa",980,"12.csv","","2271.199999988079","resources/trios/L2T1A1.jpg","39","restless",0.4,0.4,0.7,0.626566997206248,"true"
"image-keyboard-response",570,413086,"0.0-3.186-1.186","wl8mqz8bee2bqfa",980,"12.csv","","null","resources/maskTrios/BBA1.jpg","null","",NA,NA,NA,NA,""
"image-keyboard-response",571,414297,"0.0-3.186-2.186","wl8mqz8bee2bqfa",980,"12.csv","","null","resources/images/coin2.png","null","",NA,NA,NA,NA,""
"image-keyboard-response",572,415193,"0.0-3.187-0.187","wl8mqz8bee2bqfa",980,"12.csv","","894.1000000238419","resources/trios/L1T1A1.jpg","39","restless",0.4,0.4,0.7,0.537967367737091,"true"
"image-keyboard-response",573,415597,"0.0-3.187-1.187","wl8mqz8bee2bqfa",980,"12.csv","","null","resources/maskTrios/BBA1.jpg","null","",NA,NA,NA,NA,""
"image-keyboard-response",574,416806,"0.0-3.187-2.187","wl8mqz8bee2bqfa",980,"12.csv","","null","resources/images/coin2.png","null","",NA,NA,NA,NA,""
"image-keyboard-response",575,417688,"0.0-3.188-0.188","wl8mqz8bee2bqfa",980,"12.csv","","880.6999999880791","resources/trios/L1T1A2.jpg","39","restless",0.4,0.4,0.7,0.195226900570578,"true"
"image-keyboard-response",576,418093,"0.0-3.188-1.188","wl8mqz8bee2bqfa",980,"12.csv","","null","resources/maskTrios/BBA2.jpg","null","",NA,NA,NA,NA,""
"image-keyboard-response",577,419305,"0.0-3.188-2.188","wl8mqz8bee2bqfa",980,"12.csv","","null","resources/images/coin2.png","null","",NA,NA,NA,NA,""
"image-keyboard-response",578,420302,"0.0-3.189-0.189","wl8mqz8bee2bqfa",980,"12.csv","","995.3999999761581","resources/trios/L2T1A2.jpg","37","restless",0.4,0.4,0.7,0.0729977939352746,"true"
"image-keyboard-response",579,420710,"0.0-3.189-1.189","wl8mqz8bee2bqfa",980,"12.csv","","null","resources/maskTrios/L2BB.jpg","null","",NA,NA,NA,NA,""
"image-keyboard-response",580,421921,"0.0-3.189-2.189","wl8mqz8bee2bqfa",980,"12.csv","","null","resources/images/coin2.png","null","",NA,NA,NA,NA,""
"image-keyboard-response",581,422618,"0.0-3.190-0.190","wl8mqz8bee2bqfa",980,"12.csv","","694.4000000357628","resources/trios/L1T1A2.jpg","37","restless",0.4,0.4,0.8,0.70138059727075,"false"
"image-keyboard-response",582,423024,"0.0-3.190-1.190","wl8mqz8bee2bqfa",980,"12.csv","","null","resources/maskTrios/L1BB.jpg","null","",NA,NA,NA,NA,""
"image-keyboard-response",583,424230,"0.0-3.190-2.190","wl8mqz8bee2bqfa",980,"12.csv","","null","resources/images/fishbone.png","null","",NA,NA,NA,NA,""
"image-keyboard-response",584,425005,"0.0-3.191-0.191","wl8mqz8bee2bqfa",980,"12.csv","","774","resources/trios/L2T1A1.jpg","39","restless",0.4,0.4,0.8,0.677771328778023,"true"
"image-keyboard-response",585,425415,"0.0-3.191-1.191","wl8mqz8bee2bqfa",980,"12.csv","","null","resources/maskTrios/BBA1.jpg","null","",NA,NA,NA,NA,""
"image-keyboard-response",586,426622,"0.0-3.191-2.191","wl8mqz8bee2bqfa",980,"12.csv","","null","resources/images/coin2.png","null","",NA,NA,NA,NA,""
"image-keyboard-response",587,427159,"0.0-3.192-0.192","wl8mqz8bee2bqfa",980,"12.csv","","535.8000000119209","resources/trios/L2T1A1.jpg","39","restless",0.4,0.4,0.8,0.946659641245085,"false"
"image-keyboard-response",588,427565,"0.0-3.192-1.192","wl8mqz8bee2bqfa",980,"12.csv","","null","resources/maskTrios/BBA1.jpg","null","",NA,NA,NA,NA,""
"image-keyboard-response",589,428775,"0.0-3.192-2.192","wl8mqz8bee2bqfa",980,"12.csv","","null","resources/images/fishbone.png","null","",NA,NA,NA,NA,""
"image-keyboard-response",590,429300,"0.0-3.193-0.193","wl8mqz8bee2bqfa",980,"12.csv","","523.3999999761581","resources/trios/L1T4A1.jpg","38","restless",0.4,0.5,0.8,0.647145684108296,"false"
"image-keyboard-response",591,429714,"0.0-3.193-1.193","wl8mqz8bee2bqfa",980,"12.csv","","null","resources/maskTrios/BT4B.jpg","null","",NA,NA,NA,NA,""
"image-keyboard-response",592,430917,"0.0-3.193-2.193","wl8mqz8bee2bqfa",980,"12.csv","","null","resources/images/fishbone.png","null","",NA,NA,NA,NA,""
"image-keyboard-response",593,431439,"0.0-3.194-0.194","wl8mqz8bee2bqfa",980,"12.csv","","520.3000000119209","resources/trios/L1T4A1.jpg","38","restless",0.4,0.5,0.7,0.368345122956932,"true"
"image-keyboard-response",594,431846,"0.0-3.194-1.194","wl8mqz8bee2bqfa",980,"12.csv","","null","resources/maskTrios/BT4B.jpg","null","",NA,NA,NA,NA,""
"image-keyboard-response",595,433058,"0.0-3.194-2.194","wl8mqz8bee2bqfa",980,"12.csv","","null","resources/images/coin2.png","null","",NA,NA,NA,NA,""
"image-keyboard-response",596,433378,"0.0-3.195-0.195","wl8mqz8bee2bqfa",980,"12.csv","","318.39999997615814","resources/trios/L2T4A2.jpg","37","restless",0.4,0.5,0.7,0.628711151952274,"false"
"image-keyboard-response",597,433782,"0.0-3.195-1.195","wl8mqz8bee2bqfa",980,"12.csv","","null","resources/maskTrios/L2BB.jpg","null","",NA,NA,NA,NA,""
"image-keyboard-response",598,434992,"0.0-3.195-2.195","wl8mqz8bee2bqfa",980,"12.csv","","null","resources/images/fishbone.png","null","",NA,NA,NA,NA,""
"image-keyboard-response",599,435362,"0.0-3.196-0.196","wl8mqz8bee2bqfa",980,"12.csv","","369.89999997615814","resources/trios/L2T4A1.jpg","38","restless",0.4,0.5,0.7,0.223735586341729,"true"
"image-keyboard-response",600,435766,"0.0-3.196-1.196","wl8mqz8bee2bqfa",980,"12.csv","","null","resources/maskTrios/BT4B.jpg","null","",NA,NA,NA,NA,""
"image-keyboard-response",601,436976,"0.0-3.196-2.196","wl8mqz8bee2bqfa",980,"12.csv","","null","resources/images/coin2.png","null","",NA,NA,NA,NA,""
"image-keyboard-response",602,437345,"0.0-3.197-0.197","wl8mqz8bee2bqfa",980,"12.csv","","367.69999998807907","resources/trios/L2T4A2.jpg","38","restless",0.4,0.5,0.8,0.556955485629915,"false"
"image-keyboard-response",603,437753,"0.0-3.197-1.197","wl8mqz8bee2bqfa",980,"12.csv","","null","resources/maskTrios/BT4B.jpg","null","",NA,NA,NA,NA,""
"image-keyboard-response",604,438962,"0.0-3.197-2.197","wl8mqz8bee2bqfa",980,"12.csv","","null","resources/images/fishbone.png","null","",NA,NA,NA,NA,""
"image-keyboard-response",605,439239,"0.0-3.198-0.198","wl8mqz8bee2bqfa",980,"12.csv","","275.5999999642372","resources/trios/L1T1A1.jpg","39","restless",0.5,0.5,0.8,0.279341892203397,"true"
"image-keyboard-response",606,439647,"0.0-3.198-1.198","wl8mqz8bee2bqfa",980,"12.csv","","null","resources/maskTrios/BBA1.jpg","null","",NA,NA,NA,NA,""
"image-keyboard-response",607,440858,"0.0-3.198-2.198","wl8mqz8bee2bqfa",980,"12.csv","","null","resources/images/coin2.png","null","",NA,NA,NA,NA,""
"image-keyboard-response",608,441222,"0.0-3.199-0.199","wl8mqz8bee2bqfa",980,"12.csv","","362.5999999642372","resources/trios/L1T1A2.jpg","39","restless",0.6,0.5,0.8,0.136979479576297,"true"
"image-keyboard-response",609,441631,"0.0-3.199-1.199","wl8mqz8bee2bqfa",980,"12.csv","","null","resources/maskTrios/BBA2.jpg","null","",NA,NA,NA,NA,""
