"trial_type","trial_index","time_elapsed","internal_node_id","subject","participantCode","walkNumber","success","rt","stimulus","key_press","test_part","leftProb","midProb","rightProb","generatedNum","correct"
"pavlovia",0,1042,"0.0-0.0","vdkhe9nakrjyh65",152,"151.csv","","","","","",NA,NA,NA,NA,""
"fullscreen",1,5106,"0.0-1.0","vdkhe9nakrjyh65",152,"151.csv","true","","","","",NA,NA,NA,NA,""
"html-keyboard-response",2,14796,"0.0-2.0-0.0","vdkhe9nakrjyh65",152,"151.csv","","9686.70000000298","<p><font size='6'>Arrrgh!</p></font><p>Can you be the best pirate? Try to find lots of gold! But beware, some islands have more gold than others, and over time, the island with the most gold may change. Can YOU figure it out? </p><font size='6'>GOOD LUCK, CAPTAIN!!!</font><p>Press any key to begin</p>","32","",NA,NA,NA,NA,""
"image-keyboard-response",3,17801,"0.0-2.0-1.0","vdkhe9nakrjyh65",152,"151.csv","","null","resources/image_sets/111.png","null","",NA,NA,NA,NA,""
"image-keyboard-response",4,23924,"0.0-2.0-2.0","vdkhe9nakrjyh65",152,"151.csv","","6122.100000008941","resources/image_sets/left_highlight.png","37","",NA,NA,NA,NA,""
"image-keyboard-response",5,30352,"0.0-2.0-3.0","vdkhe9nakrjyh65",152,"151.csv","","6426.800000011921","resources/image_sets/mid_highlight.png","38","",NA,NA,NA,NA,""
"image-keyboard-response",6,34490,"0.0-2.0-4.0","vdkhe9nakrjyh65",152,"151.csv","","4136.600000008941","resources/image_sets/right_highlight.png","39","",NA,NA,NA,NA,""
"image-keyboard-response",7,49663,"0.0-2.0-5.0","vdkhe9nakrjyh65",152,"151.csv","","15171.60000000894","resources/image_sets/111.png","13","",NA,NA,NA,NA,""
"image-keyboard-response",8,53833,"0.0-2.0-6.0","vdkhe9nakrjyh65",152,"151.csv","","4169.20000000298","resources/images/coin2.png","13","",NA,NA,NA,NA,""
"image-keyboard-response",9,56593,"0.0-2.0-7.0","vdkhe9nakrjyh65",152,"151.csv","","2752.5","resources/images/fishbone.png","13","",NA,NA,NA,NA,""
"html-keyboard-response",10,69019,"0.0-2.0-8.0","vdkhe9nakrjyh65",152,"151.csv","","12425","<p>Your first journey will be a long one, but you will get a well deserved break at the end</p><p>After the break you will have four more journeys, but each will be much shorter than the first, and you will have breaks in between each</p><p>Press Enter to begin</p>","13","",NA,NA,NA,NA,""
"image-keyboard-response",11,72199,"0.0-3.0-0.0","vdkhe9nakrjyh65",152,"151.csv","","3178.5","resources/trios/L4T4A2.jpg","38","restless",0.7,0.9,0.3,0.935043762615583,"false"
"image-keyboard-response",12,72619,"0.0-3.0-1.0","vdkhe9nakrjyh65",152,"151.csv","","null","resources/maskTrios/BT4B.jpg","null","",NA,NA,NA,NA,""
"image-keyboard-response",13,73835,"0.0-3.0-2.0","vdkhe9nakrjyh65",152,"151.csv","","null","resources/images/fishbone.png","null","",NA,NA,NA,NA,""
"image-keyboard-response",14,76076,"0.0-3.1-0.1","vdkhe9nakrjyh65",152,"151.csv","","2239.7000000029802","resources/trios/L1T1A2.jpg","39","restless",0.7,0.8,0.3,0.513678076468183,"false"
"image-keyboard-response",15,76484,"0.0-3.1-1.1","vdkhe9nakrjyh65",152,"151.csv","","null","resources/maskTrios/BBA2.jpg","null","",NA,NA,NA,NA,""
"image-keyboard-response",16,77695,"0.0-3.1-2.1","vdkhe9nakrjyh65",152,"151.csv","","null","resources/images/fishbone.png","null","",NA,NA,NA,NA,""
"image-keyboard-response",17,79215,"0.0-3.2-0.2","vdkhe9nakrjyh65",152,"151.csv","","1518.2000000029802","resources/trios/L1T4A2.jpg","38","restless",0.6,0.8,0.3,0.897261895370248,"false"
"image-keyboard-response",18,79626,"0.0-3.2-1.2","vdkhe9nakrjyh65",152,"151.csv","","null","resources/maskTrios/BT4B.jpg","null","",NA,NA,NA,NA,""
"image-keyboard-response",19,80845,"0.0-3.2-2.2","vdkhe9nakrjyh65",152,"151.csv","","null","resources/images/fishbone.png","null","",NA,NA,NA,NA,""
"image-keyboard-response",20,81223,"0.0-3.3-0.3","vdkhe9nakrjyh65",152,"151.csv","","376.80000001192093","resources/trios/L1T4A2.jpg","37","restless",0.5,0.8,0.3,0.535436427115305,"false"
"image-keyboard-response",21,81641,"0.0-3.3-1.3","vdkhe9nakrjyh65",152,"151.csv","","null","resources/maskTrios/L1BB.jpg","null","",NA,NA,NA,NA,""
"image-keyboard-response",22,82859,"0.0-3.3-2.3","vdkhe9nakrjyh65",152,"151.csv","","null","resources/images/fishbone.png","null","",NA,NA,NA,NA,""
"image-keyboard-response",23,84243,"0.0-3.4-0.4","vdkhe9nakrjyh65",152,"151.csv","","1382.2000000029802","resources/trios/L1T1A3.jpg","37","restless",0.5,0.8,0.3,0.363929222359217,"true"
"image-keyboard-response",24,84656,"0.0-3.4-1.4","vdkhe9nakrjyh65",152,"151.csv","","null","resources/maskTrios/L1BB.jpg","null","",NA,NA,NA,NA,""
"image-keyboard-response",25,85876,"0.0-3.4-2.4","vdkhe9nakrjyh65",152,"151.csv","","null","resources/images/coin2.png","null","",NA,NA,NA,NA,""
"image-keyboard-response",26,86481,"0.0-3.5-0.5","vdkhe9nakrjyh65",152,"151.csv","","603.3999999910593","resources/trios/L1T4A3.jpg","37","restless",0.5,0.8,0.3,0.452429916828738,"true"
"image-keyboard-response",27,86892,"0.0-3.5-1.5","vdkhe9nakrjyh65",152,"151.csv","","null","resources/maskTrios/L1BB.jpg","null","",NA,NA,NA,NA,""
"image-keyboard-response",28,88111,"0.0-3.5-2.5","vdkhe9nakrjyh65",152,"151.csv","","null","resources/images/coin2.png","null","",NA,NA,NA,NA,""
"image-keyboard-response",29,89759,"0.0-3.6-0.6","vdkhe9nakrjyh65",152,"151.csv","","1646.4000000059605","resources/trios/L4T4A3.jpg","37","restless",0.5,0.7,0.2,0.365225867284995,"true"
"image-keyboard-response",30,90177,"0.0-3.6-1.6","vdkhe9nakrjyh65",152,"151.csv","","null","resources/maskTrios/L4BB.jpg","null","",NA,NA,NA,NA,""
"image-keyboard-response",31,91399,"0.0-3.6-2.6","vdkhe9nakrjyh65",152,"151.csv","","null","resources/images/coin2.png","null","",NA,NA,NA,NA,""
"image-keyboard-response",32,93798,"0.0-3.7-0.7","vdkhe9nakrjyh65",152,"151.csv","","2396.5","resources/trios/L4T1A3.jpg","37","restless",0.5,0.7,0.2,0.627424852247572,"false"
"image-keyboard-response",33,94204,"0.0-3.7-1.7","vdkhe9nakrjyh65",152,"151.csv","","null","resources/maskTrios/L4BB.jpg","null","",NA,NA,NA,NA,""
"image-keyboard-response",34,95421,"0.0-3.7-2.7","vdkhe9nakrjyh65",152,"151.csv","","null","resources/images/fishbone.png","null","",NA,NA,NA,NA,""
"image-keyboard-response",35,97172,"0.0-3.8-0.8","vdkhe9nakrjyh65",152,"151.csv","","1748.8999999910593","resources/trios/L1T4A3.jpg","39","restless",0.5,0.7,0.2,0.192250439845317,"true"
"image-keyboard-response",36,97615,"0.0-3.8-1.8","vdkhe9nakrjyh65",152,"151.csv","","null","resources/maskTrios/BBA3.jpg","null","",NA,NA,NA,NA,""
"image-keyboard-response",37,98839,"0.0-3.8-2.8","vdkhe9nakrjyh65",152,"151.csv","","null","resources/images/coin2.png","null","",NA,NA,NA,NA,""
"image-keyboard-response",38,99312,"0.0-3.9-0.9","vdkhe9nakrjyh65",152,"151.csv","","471.90000000596046","resources/trios/L1T4A2.jpg","39","restless",0.5,0.7,0.2,0.0134409692626198,"true"
"image-keyboard-response",39,99738,"0.0-3.9-1.9","vdkhe9nakrjyh65",152,"151.csv","","null","resources/maskTrios/BBA2.jpg","null","",NA,NA,NA,NA,""
"image-keyboard-response",40,100970,"0.0-3.9-2.9","vdkhe9nakrjyh65",152,"151.csv","","null","resources/images/coin2.png","null","",NA,NA,NA,NA,""
"image-keyboard-response",41,101292,"0.0-3.10-0.10","vdkhe9nakrjyh65",152,"151.csv","","320.90000000596046","resources/trios/L4T4A3.jpg","39","restless",0.5,0.6,0.3,0.605105056268349,"false"
"image-keyboard-response",42,101705,"0.0-3.10-1.10","vdkhe9nakrjyh65",152,"151.csv","","null","resources/maskTrios/BBA3.jpg","null","",NA,NA,NA,NA,""
"image-keyboard-response",43,102922,"0.0-3.10-2.10","vdkhe9nakrjyh65",152,"151.csv","","null","resources/images/fishbone.png","null","",NA,NA,NA,NA,""
"image-keyboard-response",44,103166,"0.0-3.11-0.11","vdkhe9nakrjyh65",152,"151.csv","","242.79999999701977","resources/trios/L1T1A3.jpg","38","restless",0.5,0.6,0.3,0.314475367863827,"true"
"image-keyboard-response",45,103603,"0.0-3.11-1.11","vdkhe9nakrjyh65",152,"151.csv","","null","resources/maskTrios/BT1B.jpg","null","",NA,NA,NA,NA,""
"image-keyboard-response",46,104831,"0.0-3.11-2.11","vdkhe9nakrjyh65",152,"151.csv","","null","resources/images/coin2.png","null","",NA,NA,NA,NA,""
"image-keyboard-response",47,105064,"0.0-3.12-0.12","vdkhe9nakrjyh65",152,"151.csv","","231","resources/trios/L1T1A3.jpg","38","restless",0.5,0.6,0.3,0.481465391170215,"true"
"image-keyboard-response",48,105480,"0.0-3.12-1.12","vdkhe9nakrjyh65",152,"151.csv","","null","resources/maskTrios/BT1B.jpg","null","",NA,NA,NA,NA,""
"image-keyboard-response",49,106698,"0.0-3.12-2.12","vdkhe9nakrjyh65",152,"151.csv","","null","resources/images/coin2.png","null","",NA,NA,NA,NA,""
"image-keyboard-response",50,106990,"0.0-3.13-0.13","vdkhe9nakrjyh65",152,"151.csv","","290.30000001192093","resources/trios/L1T4A2.jpg","38","restless",0.5,0.6,0.3,0.760591936341353,"false"
"image-keyboard-response",51,107402,"0.0-3.13-1.13","vdkhe9nakrjyh65",152,"151.csv","","null","resources/maskTrios/BT4B.jpg","null","",NA,NA,NA,NA,""
"image-keyboard-response",52,108619,"0.0-3.13-2.13","vdkhe9nakrjyh65",152,"151.csv","","null","resources/images/fishbone.png","null","",NA,NA,NA,NA,""
"image-keyboard-response",53,108919,"0.0-3.14-0.14","vdkhe9nakrjyh65",152,"151.csv","","298.3999999910593","resources/trios/L4T4A2.jpg","37","restless",0.5,0.6,0.3,0.549816832852904,"false"
"image-keyboard-response",54,109330,"0.0-3.14-1.14","vdkhe9nakrjyh65",152,"151.csv","","null","resources/maskTrios/L4BB.jpg","null","",NA,NA,NA,NA,""
"image-keyboard-response",55,110548,"0.0-3.14-2.14","vdkhe9nakrjyh65",152,"151.csv","","null","resources/images/fishbone.png","null","",NA,NA,NA,NA,""
"image-keyboard-response",56,111006,"0.0-3.15-0.15","vdkhe9nakrjyh65",152,"151.csv","","456.29999999701977","resources/trios/L4T1A2.jpg","39","restless",0.4,0.6,0.3,0.431582935724406,"false"
"image-keyboard-response",57,111424,"0.0-3.15-1.15","vdkhe9nakrjyh65",152,"151.csv","","null","resources/maskTrios/BBA2.jpg","null","",NA,NA,NA,NA,""
"image-keyboard-response",58,112642,"0.0-3.15-2.15","vdkhe9nakrjyh65",152,"151.csv","","null","resources/images/fishbone.png","null","",NA,NA,NA,NA,""
"image-keyboard-response",59,112845,"0.0-3.16-0.16","vdkhe9nakrjyh65",152,"151.csv","","202.20000000298023","resources/trios/L1T1A2.jpg","38","restless",0.4,0.6,0.3,0.638949350978626,"false"
"image-keyboard-response",60,113258,"0.0-3.16-1.16","vdkhe9nakrjyh65",152,"151.csv","","null","resources/maskTrios/BT1B.jpg","null","",NA,NA,NA,NA,""
"image-keyboard-response",61,114477,"0.0-3.16-2.16","vdkhe9nakrjyh65",152,"151.csv","","null","resources/images/fishbone.png","null","",NA,NA,NA,NA,""
"image-keyboard-response",62,114685,"0.0-3.17-0.17","vdkhe9nakrjyh65",152,"151.csv","","204.59999999403954","resources/trios/L4T1A3.jpg","37","restless",0.4,0.6,0.3,0.533911226136632,"false"
"image-keyboard-response",63,115095,"0.0-3.17-1.17","vdkhe9nakrjyh65",152,"151.csv","","null","resources/maskTrios/L4BB.jpg","null","",NA,NA,NA,NA,""
"image-keyboard-response",64,116304,"0.0-3.17-2.17","vdkhe9nakrjyh65",152,"151.csv","","null","resources/images/fishbone.png","null","",NA,NA,NA,NA,""
"image-keyboard-response",65,116491,"0.0-3.18-0.18","vdkhe9nakrjyh65",152,"151.csv","","185","resources/trios/L1T1A2.jpg","39","restless",0.4,0.5,0.3,0.0458475323135692,"true"
"image-keyboard-response",66,116912,"0.0-3.18-1.18","vdkhe9nakrjyh65",152,"151.csv","","null","resources/maskTrios/BBA2.jpg","null","",NA,NA,NA,NA,""
"image-keyboard-response",67,118123,"0.0-3.18-2.18","vdkhe9nakrjyh65",152,"151.csv","","null","resources/images/coin2.png","null","",NA,NA,NA,NA,""
"image-keyboard-response",68,118386,"0.0-3.19-0.19","vdkhe9nakrjyh65",152,"151.csv","","261.59999999403954","resources/trios/L1T1A2.jpg","39","restless",0.4,0.5,0.3,0.142114551172412,"true"
"image-keyboard-response",69,118796,"0.0-3.19-1.19","vdkhe9nakrjyh65",152,"151.csv","","null","resources/maskTrios/BBA2.jpg","null","",NA,NA,NA,NA,""
"image-keyboard-response",70,120023,"0.0-3.19-2.19","vdkhe9nakrjyh65",152,"151.csv","","null","resources/images/coin2.png","null","",NA,NA,NA,NA,""
"image-keyboard-response",71,120340,"0.0-3.20-0.20","vdkhe9nakrjyh65",152,"151.csv","","315.70000000298023","resources/trios/L1T1A3.jpg","39","restless",0.4,0.5,0.3,0.964817061175454,"false"
"image-keyboard-response",72,120750,"0.0-3.20-1.20","vdkhe9nakrjyh65",152,"151.csv","","null","resources/maskTrios/BBA3.jpg","null","",NA,NA,NA,NA,""
"image-keyboard-response",73,121976,"0.0-3.20-2.20","vdkhe9nakrjyh65",152,"151.csv","","null","resources/images/fishbone.png","null","",NA,NA,NA,NA,""
"image-keyboard-response",74,122238,"0.0-3.21-0.21","vdkhe9nakrjyh65",152,"151.csv","","260.70000000298023","resources/trios/L1T1A3.jpg","38","restless",0.4,0.5,0.3,0.0233211103128772,"true"
"image-keyboard-response",75,122647,"0.0-3.21-1.21","vdkhe9nakrjyh65",152,"151.csv","","null","resources/maskTrios/BT1B.jpg","null","",NA,NA,NA,NA,""
"image-keyboard-response",76,123850,"0.0-3.21-2.21","vdkhe9nakrjyh65",152,"151.csv","","null","resources/images/coin2.png","null","",NA,NA,NA,NA,""
"image-keyboard-response",77,124059,"0.0-3.22-0.22","vdkhe9nakrjyh65",152,"151.csv","","206.8999999910593","resources/trios/L4T1A3.jpg","38","restless",0.4,0.4,0.3,0.874947073594705,"false"
"image-keyboard-response",78,124469,"0.0-3.22-1.22","vdkhe9nakrjyh65",152,"151.csv","","null","resources/maskTrios/BT1B.jpg","null","",NA,NA,NA,NA,""
"image-keyboard-response",79,125683,"0.0-3.22-2.22","vdkhe9nakrjyh65",152,"151.csv","","null","resources/images/fishbone.png","null","",NA,NA,NA,NA,""
"image-keyboard-response",80,125897,"0.0-3.23-0.23","vdkhe9nakrjyh65",152,"151.csv","","212.29999999701977","resources/trios/L1T4A3.jpg","37","restless",0.4,0.4,0.3,0.963459988849797,"false"
"image-keyboard-response",81,126304,"0.0-3.23-1.23","vdkhe9nakrjyh65",152,"151.csv","","null","resources/maskTrios/L1BB.jpg","null","",NA,NA,NA,NA,""
"image-keyboard-response",82,127514,"0.0-3.23-2.23","vdkhe9nakrjyh65",152,"151.csv","","null","resources/images/fishbone.png","null","",NA,NA,NA,NA,""
"image-keyboard-response",83,127691,"0.0-3.24-0.24","vdkhe9nakrjyh65",152,"151.csv","","175.29999999701977","resources/trios/L4T1A2.jpg","37","restless",0.4,0.4,0.3,0.19060554004115,"true"
"image-keyboard-response",84,128103,"0.0-3.24-1.24","vdkhe9nakrjyh65",152,"151.csv","","null","resources/maskTrios/L4BB.jpg","null","",NA,NA,NA,NA,""
"image-keyboard-response",85,129316,"0.0-3.24-2.24","vdkhe9nakrjyh65",152,"151.csv","","null","resources/images/coin2.png","null","",NA,NA,NA,NA,""
"image-keyboard-response",86,129823,"0.0-3.25-0.25","vdkhe9nakrjyh65",152,"151.csv","","505.70000000298023","resources/trios/L1T4A2.jpg","39","restless",0.4,0.4,0.3,0.905838121906093,"false"
"image-keyboard-response",87,130248,"0.0-3.25-1.25","vdkhe9nakrjyh65",152,"151.csv","","null","resources/maskTrios/BBA2.jpg","null","",NA,NA,NA,NA,""
"image-keyboard-response",88,131475,"0.0-3.25-2.25","vdkhe9nakrjyh65",152,"151.csv","","null","resources/images/fishbone.png","null","",NA,NA,NA,NA,""
"image-keyboard-response",89,132051,"0.0-3.26-0.26","vdkhe9nakrjyh65",152,"151.csv","","574.3999999910593","resources/trios/L4T1A3.jpg","39","restless",0.3,0.4,0.3,0.152878175651519,"true"
"image-keyboard-response",90,132458,"0.0-3.26-1.26","vdkhe9nakrjyh65",152,"151.csv","","null","resources/maskTrios/BBA3.jpg","null","",NA,NA,NA,NA,""
"image-keyboard-response",91,133679,"0.0-3.26-2.26","vdkhe9nakrjyh65",152,"151.csv","","null","resources/images/coin2.png","null","",NA,NA,NA,NA,""
"image-keyboard-response",92,133992,"0.0-3.27-0.27","vdkhe9nakrjyh65",152,"151.csv","","312.3999999910593","resources/trios/L4T4A3.jpg","39","restless",0.3,0.4,0.3,0.229834868010434,"true"
"image-keyboard-response",93,134406,"0.0-3.27-1.27","vdkhe9nakrjyh65",152,"151.csv","","null","resources/maskTrios/BBA3.jpg","null","",NA,NA,NA,NA,""
"image-keyboard-response",94,135619,"0.0-3.27-2.27","vdkhe9nakrjyh65",152,"151.csv","","null","resources/images/coin2.png","null","",NA,NA,NA,NA,""
"image-keyboard-response",95,136075,"0.0-3.28-0.28","vdkhe9nakrjyh65",152,"151.csv","","455","resources/trios/L4T1A3.jpg","39","restless",0.3,0.4,0.3,0.953310371327568,"false"
"image-keyboard-response",96,136485,"0.0-3.28-1.28","vdkhe9nakrjyh65",152,"151.csv","","null","resources/maskTrios/BBA3.jpg","null","",NA,NA,NA,NA,""
"image-keyboard-response",97,137694,"0.0-3.28-2.28","vdkhe9nakrjyh65",152,"151.csv","","null","resources/images/fishbone.png","null","",NA,NA,NA,NA,""
"image-keyboard-response",98,137947,"0.0-3.29-0.29","vdkhe9nakrjyh65",152,"151.csv","","250.59999999403954","resources/trios/L4T1A3.jpg","38","restless",0.3,0.4,0.3,0.371049689197935,"true"
"image-keyboard-response",99,138367,"0.0-3.29-1.29","vdkhe9nakrjyh65",152,"151.csv","","null","resources/maskTrios/BT1B.jpg","null","",NA,NA,NA,NA,""
"image-keyboard-response",100,139585,"0.0-3.29-2.29","vdkhe9nakrjyh65",152,"151.csv","","null","resources/images/coin2.png","null","",NA,NA,NA,NA,""
"image-keyboard-response",101,139862,"0.0-3.30-0.30","vdkhe9nakrjyh65",152,"151.csv","","274.80000001192093","resources/trios/L4T4A2.jpg","38","restless",0.3,0.4,0.3,0.920197491940087,"false"
"image-keyboard-response",102,140279,"0.0-3.30-1.30","vdkhe9nakrjyh65",152,"151.csv","","null","resources/maskTrios/BT4B.jpg","null","",NA,NA,NA,NA,""
"image-keyboard-response",103,141482,"0.0-3.30-2.30","vdkhe9nakrjyh65",152,"151.csv","","null","resources/images/fishbone.png","null","",NA,NA,NA,NA,""
"image-keyboard-response",104,141693,"0.0-3.31-0.31","vdkhe9nakrjyh65",152,"151.csv","","210.5","resources/trios/L4T1A2.jpg","37","restless",0.3,0.4,0.3,0.235994116796622,"true"
"image-keyboard-response",105,142098,"0.0-3.31-1.31","vdkhe9nakrjyh65",152,"151.csv","","null","resources/maskTrios/L4BB.jpg","null","",NA,NA,NA,NA,""
"image-keyboard-response",106,143306,"0.0-3.31-2.31","vdkhe9nakrjyh65",152,"151.csv","","null","resources/images/coin2.png","null","",NA,NA,NA,NA,""
"image-keyboard-response",107,143653,"0.0-3.32-0.32","vdkhe9nakrjyh65",152,"151.csv","","345.70000000298023","resources/trios/L4T1A3.jpg","37","restless",0.3,0.4,0.3,0.397406174839322,"false"
"image-keyboard-response",108,144063,"0.0-3.32-1.32","vdkhe9nakrjyh65",152,"151.csv","","null","resources/maskTrios/L4BB.jpg","null","",NA,NA,NA,NA,""
"image-keyboard-response",109,145276,"0.0-3.32-2.32","vdkhe9nakrjyh65",152,"151.csv","","null","resources/images/fishbone.png","null","",NA,NA,NA,NA,""
"image-keyboard-response",110,145553,"0.0-3.33-0.33","vdkhe9nakrjyh65",152,"151.csv","","275.5","resources/trios/L1T1A3.jpg","39","restless",0.3,0.4,0.3,0.537645057593293,"false"
"image-keyboard-response",111,145967,"0.0-3.33-1.33","vdkhe9nakrjyh65",152,"151.csv","","null","resources/maskTrios/BBA3.jpg","null","",NA,NA,NA,NA,""
"image-keyboard-response",112,147172,"0.0-3.33-2.33","vdkhe9nakrjyh65",152,"151.csv","","null","resources/images/fishbone.png","null","",NA,NA,NA,NA,""
"image-keyboard-response",113,147418,"0.0-3.34-0.34","vdkhe9nakrjyh65",152,"151.csv","","244.70000000298023","resources/trios/L4T1A3.jpg","38","restless",0.3,0.4,0.3,0.5950068052307,"false"
"image-keyboard-response",114,147825,"0.0-3.34-1.34","vdkhe9nakrjyh65",152,"151.csv","","null","resources/maskTrios/BT1B.jpg","null","",NA,NA,NA,NA,""
"image-keyboard-response",115,149037,"0.0-3.34-2.34","vdkhe9nakrjyh65",152,"151.csv","","null","resources/images/fishbone.png","null","",NA,NA,NA,NA,""
"image-keyboard-response",116,149270,"0.0-3.35-0.35","vdkhe9nakrjyh65",152,"151.csv","","231.20000000298023","resources/trios/L1T1A2.jpg","37","restless",0.3,0.4,0.3,0.316322043799933,"false"
"image-keyboard-response",117,149695,"0.0-3.35-1.35","vdkhe9nakrjyh65",152,"151.csv","","null","resources/maskTrios/L1BB.jpg","null","",NA,NA,NA,NA,""
"image-keyboard-response",118,150902,"0.0-3.35-2.35","vdkhe9nakrjyh65",152,"151.csv","","null","resources/images/fishbone.png","null","",NA,NA,NA,NA,""
"image-keyboard-response",119,151225,"0.0-3.36-0.36","vdkhe9nakrjyh65",152,"151.csv","","322.19999998807907","resources/trios/L4T1A2.jpg","39","restless",0.3,0.4,0.3,0.903617888809009,"false"
"image-keyboard-response",120,151641,"0.0-3.36-1.36","vdkhe9nakrjyh65",152,"151.csv","","null","resources/maskTrios/BBA2.jpg","null","",NA,NA,NA,NA,""
"image-keyboard-response",121,152859,"0.0-3.36-2.36","vdkhe9nakrjyh65",152,"151.csv","","null","resources/images/fishbone.png","null","",NA,NA,NA,NA,""
"image-keyboard-response",122,153263,"0.0-3.37-0.37","vdkhe9nakrjyh65",152,"151.csv","","402.70000000298023","resources/trios/L1T1A2.jpg","38","restless",0.3,0.4,0.3,0.43449865719106,"false"
"image-keyboard-response",123,153687,"0.0-3.37-1.37","vdkhe9nakrjyh65",152,"151.csv","","null","resources/maskTrios/BT1B.jpg","null","",NA,NA,NA,NA,""
"image-keyboard-response",124,154902,"0.0-3.37-2.37","vdkhe9nakrjyh65",152,"151.csv","","null","resources/images/fishbone.png","null","",NA,NA,NA,NA,""
"image-keyboard-response",125,155460,"0.0-3.38-0.38","vdkhe9nakrjyh65",152,"151.csv","","557.2000000029802","resources/trios/L1T1A2.jpg","37","restless",0.3,0.4,0.3,0.0359971551842659,"true"
"image-keyboard-response",126,155866,"0.0-3.38-1.38","vdkhe9nakrjyh65",152,"151.csv","","null","resources/maskTrios/L1BB.jpg","null","",NA,NA,NA,NA,""
"image-keyboard-response",127,157087,"0.0-3.38-2.38","vdkhe9nakrjyh65",152,"151.csv","","null","resources/images/coin2.png","null","",NA,NA,NA,NA,""
"image-keyboard-response",128,157880,"0.0-3.39-0.39","vdkhe9nakrjyh65",152,"151.csv","","792.0999999940395","resources/trios/L1T1A3.jpg","39","restless",0.3,0.4,0.3,0.13708001254268,"true"
"image-keyboard-response",129,158292,"0.0-3.39-1.39","vdkhe9nakrjyh65",152,"151.csv","","null","resources/maskTrios/BBA3.jpg","null","",NA,NA,NA,NA,""
"image-keyboard-response",130,159499,"0.0-3.39-2.39","vdkhe9nakrjyh65",152,"151.csv","","null","resources/images/coin2.png","null","",NA,NA,NA,NA,""
"image-keyboard-response",131,160213,"0.0-3.40-0.40","vdkhe9nakrjyh65",152,"151.csv","","712.8999999910593","resources/trios/L4T1A2.jpg","38","restless",0.3,0.4,0.2,0.967940588573736,"false"
"image-keyboard-response",132,160628,"0.0-3.40-1.40","vdkhe9nakrjyh65",152,"151.csv","","null","resources/maskTrios/BT1B.jpg","null","",NA,NA,NA,NA,""
"image-keyboard-response",133,161843,"0.0-3.40-2.40","vdkhe9nakrjyh65",152,"151.csv","","null","resources/images/fishbone.png","null","",NA,NA,NA,NA,""
"image-keyboard-response",134,162504,"0.0-3.41-0.41","vdkhe9nakrjyh65",152,"151.csv","","659.7999999970198","resources/trios/L1T4A3.jpg","37","restless",0.3,0.4,0.2,0.0678139851540978,"true"
"image-keyboard-response",135,162918,"0.0-3.41-1.41","vdkhe9nakrjyh65",152,"151.csv","","null","resources/maskTrios/L1BB.jpg","null","",NA,NA,NA,NA,""
"image-keyboard-response",136,164133,"0.0-3.41-2.41","vdkhe9nakrjyh65",152,"151.csv","","null","resources/images/coin2.png","null","",NA,NA,NA,NA,""
"image-keyboard-response",137,164715,"0.0-3.42-0.42","vdkhe9nakrjyh65",152,"151.csv","","580.2999999970198","resources/trios/L1T4A2.jpg","39","restless",0.3,0.4,0.2,0.490338956291344,"false"
"image-keyboard-response",138,165131,"0.0-3.42-1.42","vdkhe9nakrjyh65",152,"151.csv","","null","resources/maskTrios/BBA2.jpg","null","",NA,NA,NA,NA,""
"image-keyboard-response",139,166350,"0.0-3.42-2.42","vdkhe9nakrjyh65",152,"151.csv","","null","resources/images/fishbone.png","null","",NA,NA,NA,NA,""
"image-keyboard-response",140,166460,"0.0-3.43-0.43","vdkhe9nakrjyh65",152,"151.csv","","108.59999999403954","resources/trios/L1T4A2.jpg","38","restless",0.3,0.5,0.2,0.544319253150248,"false"
"image-keyboard-response",141,166866,"0.0-3.43-1.43","vdkhe9nakrjyh65",152,"151.csv","","null","resources/maskTrios/BT4B.jpg","null","",NA,NA,NA,NA,""
"image-keyboard-response",142,168080,"0.0-3.43-2.43","vdkhe9nakrjyh65",152,"151.csv","","null","resources/images/fishbone.png","null","",NA,NA,NA,NA,""
"image-keyboard-response",143,168487,"0.0-3.44-0.44","vdkhe9nakrjyh65",152,"151.csv","","406.20000000298023","resources/trios/L1T4A2.jpg","37","restless",0.3,0.5,0.2,0.483361106993644,"false"
"image-keyboard-response",144,168914,"0.0-3.44-1.44","vdkhe9nakrjyh65",152,"151.csv","","null","resources/maskTrios/L1BB.jpg","null","",NA,NA,NA,NA,""
"image-keyboard-response",145,170137,"0.0-3.44-2.44","vdkhe9nakrjyh65",152,"151.csv","","null","resources/images/fishbone.png","null","",NA,NA,NA,NA,""
"image-keyboard-response",146,170474,"0.0-3.45-0.45","vdkhe9nakrjyh65",152,"151.csv","","335.79999999701977","resources/trios/L4T4A2.jpg","39","restless",0.3,0.6,0.2,0.945289747138571,"false"
"image-keyboard-response",147,170888,"0.0-3.45-1.45","vdkhe9nakrjyh65",152,"151.csv","","null","resources/maskTrios/BBA2.jpg","null","",NA,NA,NA,NA,""
"image-keyboard-response",148,172116,"0.0-3.45-2.45","vdkhe9nakrjyh65",152,"151.csv","","null","resources/images/fishbone.png","null","",NA,NA,NA,NA,""
"image-keyboard-response",149,172408,"0.0-3.46-0.46","vdkhe9nakrjyh65",152,"151.csv","","289.90000000596046","resources/trios/L4T1A2.jpg","38","restless",0.3,0.6,0.2,0.00157070165288831,"true"
"image-keyboard-response",150,172829,"0.0-3.46-1.46","vdkhe9nakrjyh65",152,"151.csv","","null","resources/maskTrios/BT1B.jpg","null","",NA,NA,NA,NA,""
"image-keyboard-response",151,174054,"0.0-3.46-2.46","vdkhe9nakrjyh65",152,"151.csv","","null","resources/images/coin2.png","null","",NA,NA,NA,NA,""
"image-keyboard-response",152,175777,"0.0-3.47-0.47","vdkhe9nakrjyh65",152,"151.csv","","1711.1000000089407","resources/trios/L4T4A3.jpg","37","restless",0.3,0.6,0.2,0.016502449153265,"true"
"image-keyboard-response",153,176186,"0.0-3.47-1.47","vdkhe9nakrjyh65",152,"151.csv","","null","resources/maskTrios/L4BB.jpg","null","",NA,NA,NA,NA,""
"image-keyboard-response",154,177405,"0.0-3.47-2.47","vdkhe9nakrjyh65",152,"151.csv","","null","resources/images/coin2.png","null","",NA,NA,NA,NA,""
"image-keyboard-response",155,178673,"0.0-3.48-0.48","vdkhe9nakrjyh65",152,"151.csv","","1266.6000000089407","resources/trios/L1T1A3.jpg","39","restless",0.4,0.6,0.2,0.663811910986351,"false"
"image-keyboard-response",156,179083,"0.0-3.48-1.48","vdkhe9nakrjyh65",152,"151.csv","","null","resources/maskTrios/BBA3.jpg","null","",NA,NA,NA,NA,""
"image-keyboard-response",157,180302,"0.0-3.48-2.48","vdkhe9nakrjyh65",152,"151.csv","","null","resources/images/fishbone.png","null","",NA,NA,NA,NA,""
"image-keyboard-response",158,180508,"0.0-3.49-0.49","vdkhe9nakrjyh65",152,"151.csv","","204.40000000596046","resources/trios/L4T4A2.jpg","38","restless",0.4,0.6,0.2,0.382156064519468,"true"
"image-keyboard-response",159,180922,"0.0-3.49-1.49","vdkhe9nakrjyh65",152,"151.csv","","null","resources/maskTrios/BT4B.jpg","null","",NA,NA,NA,NA,""
"image-keyboard-response",160,182137,"0.0-3.49-2.49","vdkhe9nakrjyh65",152,"151.csv","","null","resources/images/coin2.png","null","",NA,NA,NA,NA,""
"image-keyboard-response",161,182347,"0.0-3.50-0.50","vdkhe9nakrjyh65",152,"151.csv","","208.80000001192093","resources/trios/L4T4A2.jpg","38","restless",0.4,0.7,0.2,0.330348445692564,"true"
"image-keyboard-response",162,182759,"0.0-3.50-1.50","vdkhe9nakrjyh65",152,"151.csv","","null","resources/maskTrios/BT4B.jpg","null","",NA,NA,NA,NA,""
"image-keyboard-response",163,183974,"0.0-3.50-2.50","vdkhe9nakrjyh65",152,"151.csv","","null","resources/images/coin2.png","null","",NA,NA,NA,NA,""
"image-keyboard-response",164,184270,"0.0-3.51-0.51","vdkhe9nakrjyh65",152,"151.csv","","294.79999999701977","resources/trios/L1T4A3.jpg","38","restless",0.4,0.7,0.2,0.666507590774844,"true"
"image-keyboard-response",165,184680,"0.0-3.51-1.51","vdkhe9nakrjyh65",152,"151.csv","","null","resources/maskTrios/BT4B.jpg","null","",NA,NA,NA,NA,""
"image-keyboard-response",166,185900,"0.0-3.51-2.51","vdkhe9nakrjyh65",152,"151.csv","","null","resources/images/coin2.png","null","",NA,NA,NA,NA,""
"image-keyboard-response",167,186147,"0.0-3.52-0.52","vdkhe9nakrjyh65",152,"151.csv","","245.8999999910593","resources/trios/L1T1A2.jpg","38","restless",0.4,0.7,0.3,0.887592646823738,"false"
"image-keyboard-response",168,186560,"0.0-3.52-1.52","vdkhe9nakrjyh65",152,"151.csv","","null","resources/maskTrios/BT1B.jpg","null","",NA,NA,NA,NA,""
"image-keyboard-response",169,187769,"0.0-3.52-2.52","vdkhe9nakrjyh65",152,"151.csv","","null","resources/images/fishbone.png","null","",NA,NA,NA,NA,""
"image-keyboard-response",170,188008,"0.0-3.53-0.53","vdkhe9nakrjyh65",152,"151.csv","","236.90000000596046","resources/trios/L1T1A2.jpg","37","restless",0.4,0.7,0.3,0.680080436034336,"false"
"image-keyboard-response",171,188422,"0.0-3.53-1.53","vdkhe9nakrjyh65",152,"151.csv","","null","resources/maskTrios/L1BB.jpg","null","",NA,NA,NA,NA,""
"image-keyboard-response",172,189639,"0.0-3.53-2.53","vdkhe9nakrjyh65",152,"151.csv","","null","resources/images/fishbone.png","null","",NA,NA,NA,NA,""
"image-keyboard-response",173,190530,"0.0-3.54-0.54","vdkhe9nakrjyh65",152,"151.csv","","889.7000000029802","resources/trios/L4T4A2.jpg","39","restless",0.4,0.6,0.3,0.105103502010323,"true"
"image-keyboard-response",174,190940,"0.0-3.54-1.54","vdkhe9nakrjyh65",152,"151.csv","","null","resources/maskTrios/BBA2.jpg","null","",NA,NA,NA,NA,""
"image-keyboard-response",175,192154,"0.0-3.54-2.54","vdkhe9nakrjyh65",152,"151.csv","","null","resources/images/coin2.png","null","",NA,NA,NA,NA,""
"image-keyboard-response",176,193783,"0.0-3.55-0.55","vdkhe9nakrjyh65",152,"151.csv","","1627.9000000059605","resources/trios/L4T1A3.jpg","39","restless",0.4,0.6,0.3,0.401591261626913,"false"
"image-keyboard-response",177,194224,"0.0-3.55-1.55","vdkhe9nakrjyh65",152,"151.csv","","null","resources/maskTrios/BBA3.jpg","null","",NA,NA,NA,NA,""
"image-keyboard-response",178,195451,"0.0-3.55-2.55","vdkhe9nakrjyh65",152,"151.csv","","null","resources/images/fishbone.png","null","",NA,NA,NA,NA,""
"image-keyboard-response",179,195705,"0.0-3.56-0.56","vdkhe9nakrjyh65",152,"151.csv","","252.40000000596046","resources/trios/L4T4A3.jpg","38","restless",0.3,0.6,0.3,0.524323391232959,"true"
"image-keyboard-response",180,196122,"0.0-3.56-1.56","vdkhe9nakrjyh65",152,"151.csv","","null","resources/maskTrios/BT4B.jpg","null","",NA,NA,NA,NA,""
"image-keyboard-response",181,197330,"0.0-3.56-2.56","vdkhe9nakrjyh65",152,"151.csv","","null","resources/images/coin2.png","null","",NA,NA,NA,NA,""
"image-keyboard-response",182,198597,"0.0-3.57-0.57","vdkhe9nakrjyh65",152,"151.csv","","1265.300000011921","resources/trios/L4T4A3.jpg","38","restless",0.3,0.6,0.3,0.735536057488114,"false"
"image-keyboard-response",183,199007,"0.0-3.57-1.57","vdkhe9nakrjyh65",152,"151.csv","","null","resources/maskTrios/BT4B.jpg","null","",NA,NA,NA,NA,""
"image-keyboard-response",184,200216,"0.0-3.57-2.57","vdkhe9nakrjyh65",152,"151.csv","","null","resources/images/fishbone.png","null","",NA,NA,NA,NA,""
"image-keyboard-response",185,200469,"0.0-3.58-0.58","vdkhe9nakrjyh65",152,"151.csv","","251.79999999701977","resources/trios/L1T4A2.jpg","37","restless",0.3,0.6,0.3,0.936470328902469,"false"
"image-keyboard-response",186,200892,"0.0-3.58-1.58","vdkhe9nakrjyh65",152,"151.csv","","null","resources/maskTrios/L1BB.jpg","null","",NA,NA,NA,NA,""
"image-keyboard-response",187,202095,"0.0-3.58-2.58","vdkhe9nakrjyh65",152,"151.csv","","null","resources/images/fishbone.png","null","",NA,NA,NA,NA,""
"image-keyboard-response",188,202683,"0.0-3.59-0.59","vdkhe9nakrjyh65",152,"151.csv","","585.5","resources/trios/L4T1A3.jpg","39","restless",0.3,0.6,0.3,0.222622634527263,"true"
"image-keyboard-response",189,203101,"0.0-3.59-1.59","vdkhe9nakrjyh65",152,"151.csv","","null","resources/maskTrios/BBA3.jpg","null","",NA,NA,NA,NA,""
"image-keyboard-response",190,204309,"0.0-3.59-2.59","vdkhe9nakrjyh65",152,"151.csv","","null","resources/images/coin2.png","null","",NA,NA,NA,NA,""
"image-keyboard-response",191,204588,"0.0-3.60-0.60","vdkhe9nakrjyh65",152,"151.csv","","278.20000000298023","resources/trios/L1T4A3.jpg","39","restless",0.3,0.6,0.3,0.578701223039206,"false"
"image-keyboard-response",192,204997,"0.0-3.60-1.60","vdkhe9nakrjyh65",152,"151.csv","","null","resources/maskTrios/BBA3.jpg","null","",NA,NA,NA,NA,""
"image-keyboard-response",193,206221,"0.0-3.60-2.60","vdkhe9nakrjyh65",152,"151.csv","","null","resources/images/fishbone.png","null","",NA,NA,NA,NA,""
"image-keyboard-response",194,206290,"0.0-3.61-0.61","vdkhe9nakrjyh65",152,"151.csv","","66.09999999403954","resources/trios/L4T1A2.jpg","38","restless",0.3,0.6,0.3,0.917666862959013,"false"
"image-keyboard-response",195,206697,"0.0-3.61-1.61","vdkhe9nakrjyh65",152,"151.csv","","null","resources/maskTrios/BT1B.jpg","null","",NA,NA,NA,NA,""
"image-keyboard-response",196,207923,"0.0-3.61-2.61","vdkhe9nakrjyh65",152,"151.csv","","null","resources/images/fishbone.png","null","",NA,NA,NA,NA,""
"image-keyboard-response",197,208179,"0.0-3.62-0.62","vdkhe9nakrjyh65",152,"151.csv","","254.3999999910593","resources/trios/L4T4A2.jpg","37","restless",0.3,0.6,0.3,0.18014699185045,"true"
"image-keyboard-response",198,208590,"0.0-3.62-1.62","vdkhe9nakrjyh65",152,"151.csv","","null","resources/maskTrios/L4BB.jpg","null","",NA,NA,NA,NA,""
"image-keyboard-response",199,209801,"0.0-3.62-2.62","vdkhe9nakrjyh65",152,"151.csv","","null","resources/images/coin2.png","null","",NA,NA,NA,NA,""
"image-keyboard-response",200,210499,"0.0-3.63-0.63","vdkhe9nakrjyh65",152,"151.csv","","696.5999999940395","resources/trios/L4T1A2.jpg","37","restless",0.2,0.6,0.3,0.668243584563073,"false"
"image-keyboard-response",201,210911,"0.0-3.63-1.63","vdkhe9nakrjyh65",152,"151.csv","","null","resources/maskTrios/L4BB.jpg","null","",NA,NA,NA,NA,""
"image-keyboard-response",202,212141,"0.0-3.63-2.63","vdkhe9nakrjyh65",152,"151.csv","","null","resources/images/fishbone.png","null","",NA,NA,NA,NA,""
"image-keyboard-response",203,212434,"0.0-3.64-0.64","vdkhe9nakrjyh65",152,"151.csv","","291.30000001192093","resources/trios/L4T4A2.jpg","39","restless",0.3,0.6,0.4,0.0751329718538942,"true"
"image-keyboard-response",204,212860,"0.0-3.64-1.64","vdkhe9nakrjyh65",152,"151.csv","","null","resources/maskTrios/BBA2.jpg","null","",NA,NA,NA,NA,""
"image-keyboard-response",205,214065,"0.0-3.64-2.64","vdkhe9nakrjyh65",152,"151.csv","","null","resources/images/coin2.png","null","",NA,NA,NA,NA,""
"image-keyboard-response",206,215474,"0.0-3.65-0.65","vdkhe9nakrjyh65",152,"151.csv","","1406.5","resources/trios/L4T4A3.jpg","39","restless",0.3,0.7,0.4,0.453202949448142,"false"
"image-keyboard-response",207,215888,"0.0-3.65-1.65","vdkhe9nakrjyh65",152,"151.csv","","null","resources/maskTrios/BBA3.jpg","null","",NA,NA,NA,NA,""
"image-keyboard-response",208,217098,"0.0-3.65-2.65","vdkhe9nakrjyh65",152,"151.csv","","null","resources/images/fishbone.png","null","",NA,NA,NA,NA,""
"image-keyboard-response",209,217376,"0.0-3.66-0.66","vdkhe9nakrjyh65",152,"151.csv","","276.1000000089407","resources/trios/L1T4A2.jpg","38","restless",0.3,0.7,0.4,0.417790675602258,"true"
"image-keyboard-response",210,217796,"0.0-3.66-1.66","vdkhe9nakrjyh65",152,"151.csv","","null","resources/maskTrios/BT4B.jpg","null","",NA,NA,NA,NA,""
"image-keyboard-response",211,219017,"0.0-3.66-2.66","vdkhe9nakrjyh65",152,"151.csv","","null","resources/images/coin2.png","null","",NA,NA,NA,NA,""
"image-keyboard-response",212,219333,"0.0-3.67-0.67","vdkhe9nakrjyh65",152,"151.csv","","314.20000000298023","resources/trios/L4T4A2.jpg","38","restless",0.2,0.7,0.4,0.294957946334208,"true"
"image-keyboard-response",213,219748,"0.0-3.67-1.67","vdkhe9nakrjyh65",152,"151.csv","","null","resources/maskTrios/BT4B.jpg","null","",NA,NA,NA,NA,""
"image-keyboard-response",214,220957,"0.0-3.67-2.67","vdkhe9nakrjyh65",152,"151.csv","","null","resources/images/coin2.png","null","",NA,NA,NA,NA,""
"image-keyboard-response",215,221406,"0.0-3.68-0.68","vdkhe9nakrjyh65",152,"151.csv","","448","resources/trios/L4T4A3.jpg","38","restless",0.2,0.7,0.4,0.406104057300811,"true"
"image-keyboard-response",216,221819,"0.0-3.68-1.68","vdkhe9nakrjyh65",152,"151.csv","","null","resources/maskTrios/BT4B.jpg","null","",NA,NA,NA,NA,""
"image-keyboard-response",217,223033,"0.0-3.68-2.68","vdkhe9nakrjyh65",152,"151.csv","","null","resources/images/coin2.png","null","",NA,NA,NA,NA,""
"image-keyboard-response",218,223349,"0.0-3.69-0.69","vdkhe9nakrjyh65",152,"151.csv","","314.40000000596046","resources/trios/L4T4A3.jpg","38","restless",0.2,0.6,0.4,0.487848702050399,"true"
"image-keyboard-response",219,223755,"0.0-3.69-1.69","vdkhe9nakrjyh65",152,"151.csv","","null","resources/maskTrios/BT4B.jpg","null","",NA,NA,NA,NA,""
"image-keyboard-response",220,224965,"0.0-3.69-2.69","vdkhe9nakrjyh65",152,"151.csv","","null","resources/images/coin2.png","null","",NA,NA,NA,NA,""
"image-keyboard-response",221,225352,"0.0-3.70-0.70","vdkhe9nakrjyh65",152,"151.csv","","385.40000000596046","resources/trios/L4T4A3.jpg","38","restless",0.2,0.6,0.4,0.750984924050951,"false"
"image-keyboard-response",222,225770,"0.0-3.70-1.70","vdkhe9nakrjyh65",152,"151.csv","","null","resources/maskTrios/BT4B.jpg","null","",NA,NA,NA,NA,""
"image-keyboard-response",223,226981,"0.0-3.70-2.70","vdkhe9nakrjyh65",152,"151.csv","","null","resources/images/fishbone.png","null","",NA,NA,NA,NA,""
"image-keyboard-response",224,227252,"0.0-3.71-0.71","vdkhe9nakrjyh65",152,"151.csv","","268.40000000596046","resources/trios/L1T4A3.jpg","37","restless",0.3,0.6,0.4,0.379221159221714,"false"
"image-keyboard-response",225,227671,"0.0-3.71-1.71","vdkhe9nakrjyh65",152,"151.csv","","null","resources/maskTrios/L1BB.jpg","null","",NA,NA,NA,NA,""
"image-keyboard-response",226,228889,"0.0-3.71-2.71","vdkhe9nakrjyh65",152,"151.csv","","null","resources/images/fishbone.png","null","",NA,NA,NA,NA,""
"image-keyboard-response",227,229326,"0.0-3.72-0.72","vdkhe9nakrjyh65",152,"151.csv","","434.59999999403954","resources/trios/L1T4A3.jpg","38","restless",0.3,0.6,0.4,0.961505832813409,"false"
"image-keyboard-response",228,229740,"0.0-3.72-1.72","vdkhe9nakrjyh65",152,"151.csv","","null","resources/maskTrios/BT4B.jpg","null","",NA,NA,NA,NA,""
"image-keyboard-response",229,230944,"0.0-3.72-2.72","vdkhe9nakrjyh65",152,"151.csv","","null","resources/images/fishbone.png","null","",NA,NA,NA,NA,""
"image-keyboard-response",230,231176,"0.0-3.73-0.73","vdkhe9nakrjyh65",152,"151.csv","","230","resources/trios/L1T4A3.jpg","38","restless",0.4,0.6,0.4,0.380349934584087,"true"
"image-keyboard-response",231,231592,"0.0-3.73-1.73","vdkhe9nakrjyh65",152,"151.csv","","null","resources/maskTrios/BT4B.jpg","null","",NA,NA,NA,NA,""
"image-keyboard-response",232,232806,"0.0-3.73-2.73","vdkhe9nakrjyh65",152,"151.csv","","null","resources/images/coin2.png","null","",NA,NA,NA,NA,""
"image-keyboard-response",233,233111,"0.0-3.74-0.74","vdkhe9nakrjyh65",152,"151.csv","","303.5","resources/trios/L4T1A2.jpg","38","restless",0.4,0.6,0.5,0.715126769145602,"false"
"image-keyboard-response",234,233522,"0.0-3.74-1.74","vdkhe9nakrjyh65",152,"151.csv","","null","resources/maskTrios/BT1B.jpg","null","",NA,NA,NA,NA,""
"image-keyboard-response",235,234732,"0.0-3.74-2.74","vdkhe9nakrjyh65",152,"151.csv","","null","resources/images/fishbone.png","null","",NA,NA,NA,NA,""
"image-keyboard-response",236,235176,"0.0-3.75-0.75","vdkhe9nakrjyh65",152,"151.csv","","442.29999999701977","resources/trios/L1T1A2.jpg","38","restless",0.4,0.6,0.5,0.941614050469304,"false"
"image-keyboard-response",237,235598,"0.0-3.75-1.75","vdkhe9nakrjyh65",152,"151.csv","","null","resources/maskTrios/BT1B.jpg","null","",NA,NA,NA,NA,""
"image-keyboard-response",238,236811,"0.0-3.75-2.75","vdkhe9nakrjyh65",152,"151.csv","","null","resources/images/fishbone.png","null","",NA,NA,NA,NA,""
"image-keyboard-response",239,237176,"0.0-3.76-0.76","vdkhe9nakrjyh65",152,"151.csv","","362.90000000596046","resources/trios/L4T4A2.jpg","39","restless",0.4,0.6,0.5,0.149543452517496,"true"
"image-keyboard-response",240,237605,"0.0-3.76-1.76","vdkhe9nakrjyh65",152,"151.csv","","null","resources/maskTrios/BBA2.jpg","null","",NA,NA,NA,NA,""
"image-keyboard-response",241,238820,"0.0-3.76-2.76","vdkhe9nakrjyh65",152,"151.csv","","null","resources/images/coin2.png","null","",NA,NA,NA,NA,""
"image-keyboard-response",242,239125,"0.0-3.77-0.77","vdkhe9nakrjyh65",152,"151.csv","","303.5","resources/trios/L4T1A2.jpg","39","restless",0.4,0.6,0.5,0.39728590664954,"true"
"image-keyboard-response",243,239535,"0.0-3.77-1.77","vdkhe9nakrjyh65",152,"151.csv","","null","resources/maskTrios/BBA2.jpg","null","",NA,NA,NA,NA,""
"image-keyboard-response",244,240754,"0.0-3.77-2.77","vdkhe9nakrjyh65",152,"151.csv","","null","resources/images/coin2.png","null","",NA,NA,NA,NA,""
"image-keyboard-response",245,241028,"0.0-3.78-0.78","vdkhe9nakrjyh65",152,"151.csv","","272.5","resources/trios/L4T1A3.jpg","39","restless",0.4,0.6,0.5,0.389133315195637,"true"
"image-keyboard-response",246,241451,"0.0-3.78-1.78","vdkhe9nakrjyh65",152,"151.csv","","null","resources/maskTrios/BBA3.jpg","null","",NA,NA,NA,NA,""
"image-keyboard-response",247,242675,"0.0-3.78-2.78","vdkhe9nakrjyh65",152,"151.csv","","null","resources/images/coin2.png","null","",NA,NA,NA,NA,""
"image-keyboard-response",248,242946,"0.0-3.79-0.79","vdkhe9nakrjyh65",152,"151.csv","","268.6000000089407","resources/trios/L1T1A2.jpg","39","restless",0.4,0.6,0.5,0.604311299214251,"false"
"image-keyboard-response",249,243367,"0.0-3.79-1.79","vdkhe9nakrjyh65",152,"151.csv","","null","resources/maskTrios/BBA2.jpg","null","",NA,NA,NA,NA,""
"image-keyboard-response",250,244581,"0.0-3.79-2.79","vdkhe9nakrjyh65",152,"151.csv","","null","resources/images/fishbone.png","null","",NA,NA,NA,NA,""
"image-keyboard-response",251,244876,"0.0-3.80-0.80","vdkhe9nakrjyh65",152,"151.csv","","293.70000000298023","resources/trios/L4T1A3.jpg","38","restless",0.4,0.6,0.5,0.659550541693586,"false"
"image-keyboard-response",252,245287,"0.0-3.80-1.80","vdkhe9nakrjyh65",152,"151.csv","","null","resources/maskTrios/BT1B.jpg","null","",NA,NA,NA,NA,""
"image-keyboard-response",253,246501,"0.0-3.80-2.80","vdkhe9nakrjyh65",152,"151.csv","","null","resources/images/fishbone.png","null","",NA,NA,NA,NA,""
"image-keyboard-response",254,246792,"0.0-3.81-0.81","vdkhe9nakrjyh65",152,"151.csv","","288.90000000596046","resources/trios/L1T1A3.jpg","37","restless",0.4,0.6,0.5,0.291369046859476,"true"
"image-keyboard-response",255,247213,"0.0-3.81-1.81","vdkhe9nakrjyh65",152,"151.csv","","null","resources/maskTrios/L1BB.jpg","null","",NA,NA,NA,NA,""
"image-keyboard-response",256,248425,"0.0-3.81-2.81","vdkhe9nakrjyh65",152,"151.csv","","null","resources/images/coin2.png","null","",NA,NA,NA,NA,""
"image-keyboard-response",257,248936,"0.0-3.82-0.82","vdkhe9nakrjyh65",152,"151.csv","","509.29999999701977","resources/trios/L4T1A2.jpg","37","restless",0.5,0.6,0.5,0.362048026998323,"true"
"image-keyboard-response",258,249353,"0.0-3.82-1.82","vdkhe9nakrjyh65",152,"151.csv","","null","resources/maskTrios/L4BB.jpg","null","",NA,NA,NA,NA,""
"image-keyboard-response",259,250556,"0.0-3.82-2.82","vdkhe9nakrjyh65",152,"151.csv","","null","resources/images/coin2.png","null","",NA,NA,NA,NA,""
"image-keyboard-response",260,250847,"0.0-3.83-0.83","vdkhe9nakrjyh65",152,"151.csv","","288.90000000596046","resources/trios/L1T1A2.jpg","37","restless",0.5,0.6,0.4,0.709207006572223,"false"
"image-keyboard-response",261,251260,"0.0-3.83-1.83","vdkhe9nakrjyh65",152,"151.csv","","null","resources/maskTrios/L1BB.jpg","null","",NA,NA,NA,NA,""
"image-keyboard-response",262,252471,"0.0-3.83-2.83","vdkhe9nakrjyh65",152,"151.csv","","null","resources/images/fishbone.png","null","",NA,NA,NA,NA,""
"image-keyboard-response",263,252719,"0.0-3.84-0.84","vdkhe9nakrjyh65",152,"151.csv","","247","resources/trios/L4T4A2.jpg","39","restless",0.4,0.6,0.5,0.919229579622644,"false"
"image-keyboard-response",264,253126,"0.0-3.84-1.84","vdkhe9nakrjyh65",152,"151.csv","","null","resources/maskTrios/BBA2.jpg","null","",NA,NA,NA,NA,""
"image-keyboard-response",265,254341,"0.0-3.84-2.84","vdkhe9nakrjyh65",152,"151.csv","","null","resources/images/fishbone.png","null","",NA,NA,NA,NA,""
"image-keyboard-response",266,254439,"0.0-3.85-0.85","vdkhe9nakrjyh65",152,"151.csv","","96.29999999701977","resources/trios/L1T4A3.jpg","38","restless",0.4,0.6,0.5,0.390446379252737,"true"
"image-keyboard-response",267,254854,"0.0-3.85-1.85","vdkhe9nakrjyh65",152,"151.csv","","null","resources/maskTrios/BT4B.jpg","null","",NA,NA,NA,NA,""
"image-keyboard-response",268,256064,"0.0-3.85-2.85","vdkhe9nakrjyh65",152,"151.csv","","null","resources/images/coin2.png","null","",NA,NA,NA,NA,""
"image-keyboard-response",269,256360,"0.0-3.86-0.86","vdkhe9nakrjyh65",152,"151.csv","","294","resources/trios/L4T1A2.jpg","38","restless",0.4,0.6,0.4,0.791482004710677,"false"
"image-keyboard-response",270,256767,"0.0-3.86-1.86","vdkhe9nakrjyh65",152,"151.csv","","null","resources/maskTrios/BT1B.jpg","null","",NA,NA,NA,NA,""
"image-keyboard-response",271,257980,"0.0-3.86-2.86","vdkhe9nakrjyh65",152,"151.csv","","null","resources/images/fishbone.png","null","",NA,NA,NA,NA,""
"image-keyboard-response",272,258414,"0.0-3.87-0.87","vdkhe9nakrjyh65",152,"151.csv","","432.40000000596046","resources/trios/L1T4A2.jpg","37","restless",0.4,0.6,0.4,0.468625486084125,"false"
"image-keyboard-response",273,258825,"0.0-3.87-1.87","vdkhe9nakrjyh65",152,"151.csv","","null","resources/maskTrios/L1BB.jpg","null","",NA,NA,NA,NA,""
"image-keyboard-response",274,260041,"0.0-3.87-2.87","vdkhe9nakrjyh65",152,"151.csv","","null","resources/images/fishbone.png","null","",NA,NA,NA,NA,""
"image-keyboard-response",275,260537,"0.0-3.88-0.88","vdkhe9nakrjyh65",152,"151.csv","","494","resources/trios/L4T4A3.jpg","39","restless",0.4,0.6,0.4,0.143859240198562,"true"
"image-keyboard-response",276,260960,"0.0-3.88-1.88","vdkhe9nakrjyh65",152,"151.csv","","null","resources/maskTrios/BBA3.jpg","null","",NA,NA,NA,NA,""
"image-keyboard-response",277,262175,"0.0-3.88-2.88","vdkhe9nakrjyh65",152,"151.csv","","null","resources/images/coin2.png","null","",NA,NA,NA,NA,""
"image-keyboard-response",278,262524,"0.0-3.89-0.89","vdkhe9nakrjyh65",152,"151.csv","","347.8999999910593","resources/trios/L1T1A2.jpg","39","restless",0.4,0.6,0.4,0.504317015435512,"false"
"image-keyboard-response",279,262936,"0.0-3.89-1.89","vdkhe9nakrjyh65",152,"151.csv","","null","resources/maskTrios/BBA2.jpg","null","",NA,NA,NA,NA,""
"image-keyboard-response",280,264143,"0.0-3.89-2.89","vdkhe9nakrjyh65",152,"151.csv","","null","resources/images/fishbone.png","null","",NA,NA,NA,NA,""
"image-keyboard-response",281,264346,"0.0-3.90-0.90","vdkhe9nakrjyh65",152,"151.csv","","201.3999999910593","resources/trios/L4T4A3.jpg","38","restless",0.4,0.6,0.4,0.2320096655217,"true"
"image-keyboard-response",282,264753,"0.0-3.90-1.90","vdkhe9nakrjyh65",152,"151.csv","","null","resources/maskTrios/BT4B.jpg","null","",NA,NA,NA,NA,""
"image-keyboard-response",283,265970,"0.0-3.90-2.90","vdkhe9nakrjyh65",152,"151.csv","","null","resources/images/coin2.png","null","",NA,NA,NA,NA,""
"image-keyboard-response",284,266289,"0.0-3.91-0.91","vdkhe9nakrjyh65",152,"151.csv","","316.79999999701977","resources/trios/L4T4A3.jpg","38","restless",0.3,0.6,0.4,0.0255195693804131,"true"
"image-keyboard-response",285,266701,"0.0-3.91-1.91","vdkhe9nakrjyh65",152,"151.csv","","null","resources/maskTrios/BT4B.jpg","null","",NA,NA,NA,NA,""
"image-keyboard-response",286,267910,"0.0-3.91-2.91","vdkhe9nakrjyh65",152,"151.csv","","null","resources/images/coin2.png","null","",NA,NA,NA,NA,""
"image-keyboard-response",287,268255,"0.0-3.92-0.92","vdkhe9nakrjyh65",152,"151.csv","","343.3999999910593","resources/trios/L4T4A2.jpg","38","restless",0.3,0.6,0.4,0.630067709956915,"false"
"image-keyboard-response",288,268666,"0.0-3.92-1.92","vdkhe9nakrjyh65",152,"151.csv","","null","resources/maskTrios/BT4B.jpg","null","",NA,NA,NA,NA,""
"image-keyboard-response",289,269877,"0.0-3.92-2.92","vdkhe9nakrjyh65",152,"151.csv","","null","resources/images/fishbone.png","null","",NA,NA,NA,NA,""
"image-keyboard-response",290,270013,"0.0-3.93-0.93","vdkhe9nakrjyh65",152,"151.csv","","134.40000000596046","resources/trios/L1T1A3.jpg","37","restless",0.3,0.6,0.4,0.700736672093697,"false"
"image-keyboard-response",291,270433,"0.0-3.93-1.93","vdkhe9nakrjyh65",152,"151.csv","","null","resources/maskTrios/L1BB.jpg","null","",NA,NA,NA,NA,""
"image-keyboard-response",292,271660,"0.0-3.93-2.93","vdkhe9nakrjyh65",152,"151.csv","","null","resources/images/fishbone.png","null","",NA,NA,NA,NA,""
"image-keyboard-response",293,271862,"0.0-3.94-0.94","vdkhe9nakrjyh65",152,"151.csv","","200.59999999403954","resources/trios/L1T1A2.jpg","39","restless",0.3,0.6,0.4,0.0612582893215057,"true"
"image-keyboard-response",294,272272,"0.0-3.94-1.94","vdkhe9nakrjyh65",152,"151.csv","","null","resources/maskTrios/BBA2.jpg","null","",NA,NA,NA,NA,""
"image-keyboard-response",295,273487,"0.0-3.94-2.94","vdkhe9nakrjyh65",152,"151.csv","","null","resources/images/coin2.png","null","",NA,NA,NA,NA,""
"image-keyboard-response",296,273644,"0.0-3.95-0.95","vdkhe9nakrjyh65",152,"151.csv","","154.29999999701977","resources/trios/L4T1A2.jpg","39","restless",0.3,0.6,0.3,0.540529063769311,"false"
"image-keyboard-response",297,274060,"0.0-3.95-1.95","vdkhe9nakrjyh65",152,"151.csv","","null","resources/maskTrios/BBA2.jpg","null","",NA,NA,NA,NA,""
"image-keyboard-response",298,275291,"0.0-3.95-2.95","vdkhe9nakrjyh65",152,"151.csv","","null","resources/images/fishbone.png","null","",NA,NA,NA,NA,""
"image-keyboard-response",299,275530,"0.0-3.96-0.96","vdkhe9nakrjyh65",152,"151.csv","","236.79999999701977","resources/trios/L1T1A2.jpg","38","restless",0.3,0.6,0.2,0.875575673372014,"false"
"image-keyboard-response",300,275940,"0.0-3.96-1.96","vdkhe9nakrjyh65",152,"151.csv","","null","resources/maskTrios/BT1B.jpg","null","",NA,NA,NA,NA,""
"image-keyboard-response",301,277151,"0.0-3.96-2.96","vdkhe9nakrjyh65",152,"151.csv","","null","resources/images/fishbone.png","null","",NA,NA,NA,NA,""
"image-keyboard-response",302,277396,"0.0-3.97-0.97","vdkhe9nakrjyh65",152,"151.csv","","243.5","resources/trios/L4T1A3.jpg","37","restless",0.3,0.6,0.2,0.366766506571885,"false"
"image-keyboard-response",303,277807,"0.0-3.97-1.97","vdkhe9nakrjyh65",152,"151.csv","","null","resources/maskTrios/L4BB.jpg","null","",NA,NA,NA,NA,""
"image-keyboard-response",304,279020,"0.0-3.97-2.97","vdkhe9nakrjyh65",152,"151.csv","","null","resources/images/fishbone.png","null","",NA,NA,NA,NA,""
"image-keyboard-response",305,279446,"0.0-3.98-0.98","vdkhe9nakrjyh65",152,"151.csv","","425.1000000089407","resources/trios/L1T4A3.jpg","39","restless",0.3,0.6,0.2,0.208823376640616,"false"
"image-keyboard-response",306,279864,"0.0-3.98-1.98","vdkhe9nakrjyh65",152,"151.csv","","null","resources/maskTrios/BBA3.jpg","null","",NA,NA,NA,NA,""
"image-keyboard-response",307,281088,"0.0-3.98-2.98","vdkhe9nakrjyh65",152,"151.csv","","null","resources/images/fishbone.png","null","",NA,NA,NA,NA,""
"image-keyboard-response",308,281487,"0.0-3.99-0.99","vdkhe9nakrjyh65",152,"151.csv","","397.59999999403954","resources/trios/L1T1A3.jpg","38","restless",0.4,0.6,0.2,0.797450625594834,"false"
"image-keyboard-response",309,281914,"0.0-3.99-1.99","vdkhe9nakrjyh65",152,"151.csv","","null","resources/maskTrios/BT1B.jpg","null","",NA,NA,NA,NA,""
"image-keyboard-response",310,283131,"0.0-3.99-2.99","vdkhe9nakrjyh65",152,"151.csv","","null","resources/images/fishbone.png","null","",NA,NA,NA,NA,""
"image-keyboard-response",311,283508,"0.0-3.100-0.100","vdkhe9nakrjyh65",152,"151.csv","","375.5","resources/trios/L1T4A3.jpg","37","restless",0.4,0.6,0.2,0.887322442117273,"false"
"image-keyboard-response",312,283930,"0.0-3.100-1.100","vdkhe9nakrjyh65",152,"151.csv","","null","resources/maskTrios/L1BB.jpg","null","",NA,NA,NA,NA,""
"image-keyboard-response",313,285149,"0.0-3.100-2.100","vdkhe9nakrjyh65",152,"151.csv","","null","resources/images/fishbone.png","null","",NA,NA,NA,NA,""
"image-keyboard-response",314,285476,"0.0-3.101-0.101","vdkhe9nakrjyh65",152,"151.csv","","324.90000000596046","resources/trios/L1T1A2.jpg","39","restless",0.4,0.6,0.1,0.0351246130208702,"true"
"image-keyboard-response",315,285893,"0.0-3.101-1.101","vdkhe9nakrjyh65",152,"151.csv","","null","resources/maskTrios/BBA2.jpg","null","",NA,NA,NA,NA,""
"image-keyboard-response",316,287104,"0.0-3.101-2.101","vdkhe9nakrjyh65",152,"151.csv","","null","resources/images/coin2.png","null","",NA,NA,NA,NA,""
"image-keyboard-response",317,287410,"0.0-3.102-0.102","vdkhe9nakrjyh65",152,"151.csv","","304.29999999701977","resources/trios/L1T4A2.jpg","39","restless",0.4,0.7,0.1,0.511737072271758,"false"
"image-keyboard-response",318,287826,"0.0-3.102-1.102","vdkhe9nakrjyh65",152,"151.csv","","null","resources/maskTrios/BBA2.jpg","null","",NA,NA,NA,NA,""
"image-keyboard-response",319,289048,"0.0-3.102-2.102","vdkhe9nakrjyh65",152,"151.csv","","null","resources/images/fishbone.png","null","",NA,NA,NA,NA,""
"image-keyboard-response",320,289286,"0.0-3.103-0.103","vdkhe9nakrjyh65",152,"151.csv","","236.70000000298023","resources/trios/L4T1A2.jpg","38","restless",0.4,0.7,0.1,0.719419573584825,"false"
"image-keyboard-response",321,289706,"0.0-3.103-1.103","vdkhe9nakrjyh65",152,"151.csv","","null","resources/maskTrios/BT1B.jpg","null","",NA,NA,NA,NA,""
"image-keyboard-response",322,290911,"0.0-3.103-2.103","vdkhe9nakrjyh65",152,"151.csv","","null","resources/images/fishbone.png","null","",NA,NA,NA,NA,""
"image-keyboard-response",323,291211,"0.0-3.104-0.104","vdkhe9nakrjyh65",152,"151.csv","","299","resources/trios/L4T4A2.jpg","37","restless",0.4,0.7,0.1,0.953056088258313,"false"
"image-keyboard-response",324,291628,"0.0-3.104-1.104","vdkhe9nakrjyh65",152,"151.csv","","null","resources/maskTrios/L4BB.jpg","null","",NA,NA,NA,NA,""
"image-keyboard-response",325,292850,"0.0-3.104-2.104","vdkhe9nakrjyh65",152,"151.csv","","null","resources/images/fishbone.png","null","",NA,NA,NA,NA,""
"image-keyboard-response",326,293073,"0.0-3.105-0.105","vdkhe9nakrjyh65",152,"151.csv","","221.5","resources/trios/L4T1A2.jpg","39","restless",0.4,0.7,0.1,0.82367775151088,"false"
"image-keyboard-response",327,293478,"0.0-3.105-1.105","vdkhe9nakrjyh65",152,"151.csv","","null","resources/maskTrios/BBA2.jpg","null","",NA,NA,NA,NA,""
"image-keyboard-response",328,294690,"0.0-3.105-2.105","vdkhe9nakrjyh65",152,"151.csv","","null","resources/images/fishbone.png","null","",NA,NA,NA,NA,""
"image-keyboard-response",329,294939,"0.0-3.106-0.106","vdkhe9nakrjyh65",152,"151.csv","","247.5","resources/trios/L4T4A3.jpg","38","restless",0.4,0.7,0.1,0.688114999803347,"true"
"image-keyboard-response",330,295354,"0.0-3.106-1.106","vdkhe9nakrjyh65",152,"151.csv","","null","resources/maskTrios/BT4B.jpg","null","",NA,NA,NA,NA,""
"image-keyboard-response",331,296558,"0.0-3.106-2.106","vdkhe9nakrjyh65",152,"151.csv","","null","resources/images/coin2.png","null","",NA,NA,NA,NA,""
"image-keyboard-response",332,296926,"0.0-3.107-0.107","vdkhe9nakrjyh65",152,"151.csv","","366.70000000298023","resources/trios/L4T1A2.jpg","38","restless",0.4,0.7,0.1,0.299550901851714,"true"
"image-keyboard-response",333,297346,"0.0-3.107-1.107","vdkhe9nakrjyh65",152,"151.csv","","null","resources/maskTrios/BT1B.jpg","null","",NA,NA,NA,NA,""
"image-keyboard-response",334,298557,"0.0-3.107-2.107","vdkhe9nakrjyh65",152,"151.csv","","null","resources/images/coin2.png","null","",NA,NA,NA,NA,""
"image-keyboard-response",335,298809,"0.0-3.108-0.108","vdkhe9nakrjyh65",152,"151.csv","","249.70000000298023","resources/trios/L1T1A3.jpg","38","restless",0.4,0.7,0.1,0.651734784339409,"true"
"image-keyboard-response",336,299214,"0.0-3.108-1.108","vdkhe9nakrjyh65",152,"151.csv","","null","resources/maskTrios/BT1B.jpg","null","",NA,NA,NA,NA,""
"image-keyboard-response",337,300434,"0.0-3.108-2.108","vdkhe9nakrjyh65",152,"151.csv","","null","resources/images/coin2.png","null","",NA,NA,NA,NA,""
"image-keyboard-response",338,300742,"0.0-3.109-0.109","vdkhe9nakrjyh65",152,"151.csv","","305.79999999701977","resources/trios/L1T1A3.jpg","38","restless",0.4,0.7,0.1,0.797382735715469,"false"
"image-keyboard-response",339,301150,"0.0-3.109-1.109","vdkhe9nakrjyh65",152,"151.csv","","null","resources/maskTrios/BT1B.jpg","null","",NA,NA,NA,NA,""
"image-keyboard-response",340,302362,"0.0-3.109-2.109","vdkhe9nakrjyh65",152,"151.csv","","null","resources/images/fishbone.png","null","",NA,NA,NA,NA,""
"image-keyboard-response",341,302691,"0.0-3.110-0.110","vdkhe9nakrjyh65",152,"151.csv","","327.3999999910593","resources/trios/L1T4A3.jpg","37","restless",0.5,0.7,0.1,0.776264676820389,"false"
"image-keyboard-response",342,303103,"0.0-3.110-1.110","vdkhe9nakrjyh65",152,"151.csv","","null","resources/maskTrios/L1BB.jpg","null","",NA,NA,NA,NA,""
"image-keyboard-response",343,304315,"0.0-3.110-2.110","vdkhe9nakrjyh65",152,"151.csv","","null","resources/images/fishbone.png","null","",NA,NA,NA,NA,""
"image-keyboard-response",344,305033,"0.0-3.111-0.111","vdkhe9nakrjyh65",152,"151.csv","","715.7000000029802","resources/trios/L4T4A3.jpg","39","restless",0.5,0.7,0.1,0.45937385159038,"false"
"image-keyboard-response",345,305440,"0.0-3.111-1.111","vdkhe9nakrjyh65",152,"151.csv","","null","resources/maskTrios/BBA3.jpg","null","",NA,NA,NA,NA,""
"image-keyboard-response",346,306651,"0.0-3.111-2.111","vdkhe9nakrjyh65",152,"151.csv","","null","resources/images/fishbone.png","null","",NA,NA,NA,NA,""
"image-keyboard-response",347,307115,"0.0-3.112-0.112","vdkhe9nakrjyh65",152,"151.csv","","461.70000000298023","resources/trios/L4T1A3.jpg","38","restless",0.5,0.7,0.1,0.895198980497981,"false"
"image-keyboard-response",348,307527,"0.0-3.112-1.112","vdkhe9nakrjyh65",152,"151.csv","","null","resources/maskTrios/BT1B.jpg","null","",NA,NA,NA,NA,""
"image-keyboard-response",349,308745,"0.0-3.112-2.112","vdkhe9nakrjyh65",152,"151.csv","","null","resources/images/fishbone.png","null","",NA,NA,NA,NA,""
"image-keyboard-response",350,309206,"0.0-3.113-0.113","vdkhe9nakrjyh65",152,"151.csv","","460.20000000298023","resources/trios/L4T1A2.jpg","37","restless",0.5,0.7,0.1,0.00873053621229669,"true"
"image-keyboard-response",351,309616,"0.0-3.113-1.113","vdkhe9nakrjyh65",152,"151.csv","","null","resources/maskTrios/L4BB.jpg","null","",NA,NA,NA,NA,""
"image-keyboard-response",352,310824,"0.0-3.113-2.113","vdkhe9nakrjyh65",152,"151.csv","","null","resources/images/coin2.png","null","",NA,NA,NA,NA,""
"image-keyboard-response",353,311940,"0.0-3.114-0.114","vdkhe9nakrjyh65",152,"151.csv","","1114","resources/trios/L1T4A3.jpg","37","restless",0.5,0.7,0.1,0.925563692136673,"false"
"image-keyboard-response",354,312354,"0.0-3.114-1.114","vdkhe9nakrjyh65",152,"151.csv","","null","resources/maskTrios/L1BB.jpg","null","",NA,NA,NA,NA,""
"image-keyboard-response",355,313563,"0.0-3.114-2.114","vdkhe9nakrjyh65",152,"151.csv","","null","resources/images/fishbone.png","null","",NA,NA,NA,NA,""
"image-keyboard-response",356,313874,"0.0-3.115-0.115","vdkhe9nakrjyh65",152,"151.csv","","309.30000001192093","resources/trios/L1T4A3.jpg","39","restless",0.5,0.7,0.1,0.281814898312615,"false"
"image-keyboard-response",357,314292,"0.0-3.115-1.115","vdkhe9nakrjyh65",152,"151.csv","","null","resources/maskTrios/BBA3.jpg","null","",NA,NA,NA,NA,""
"image-keyboard-response",358,315514,"0.0-3.115-2.115","vdkhe9nakrjyh65",152,"151.csv","","null","resources/images/fishbone.png","null","",NA,NA,NA,NA,""
"image-keyboard-response",359,315663,"0.0-3.116-0.116","vdkhe9nakrjyh65",152,"151.csv","","147.20000000298023","resources/trios/L4T4A3.jpg","38","restless",0.5,0.6,0.1,0.412609628317237,"true"
"image-keyboard-response",360,316072,"0.0-3.116-1.116","vdkhe9nakrjyh65",152,"151.csv","","null","resources/maskTrios/BT4B.jpg","null","",NA,NA,NA,NA,""
"image-keyboard-response",361,317276,"0.0-3.116-2.116","vdkhe9nakrjyh65",152,"151.csv","","null","resources/images/coin2.png","null","",NA,NA,NA,NA,""
"image-keyboard-response",362,317460,"0.0-3.117-0.117","vdkhe9nakrjyh65",152,"151.csv","","182.6000000089407","resources/trios/L1T4A2.jpg","38","restless",0.5,0.6,0.1,0.717364072625035,"false"
"image-keyboard-response",363,317870,"0.0-3.117-1.117","vdkhe9nakrjyh65",152,"151.csv","","null","resources/maskTrios/BT4B.jpg","null","",NA,NA,NA,NA,""
"image-keyboard-response",364,319088,"0.0-3.117-2.117","vdkhe9nakrjyh65",152,"151.csv","","null","resources/images/fishbone.png","null","",NA,NA,NA,NA,""
"image-keyboard-response",365,319303,"0.0-3.118-0.118","vdkhe9nakrjyh65",152,"151.csv","","213.20000000298023","resources/trios/L4T1A2.jpg","37","restless",0.5,0.6,0.1,0.435126449537829,"true"
"image-keyboard-response",366,319716,"0.0-3.118-1.118","vdkhe9nakrjyh65",152,"151.csv","","null","resources/maskTrios/L4BB.jpg","null","",NA,NA,NA,NA,""
"image-keyboard-response",367,320947,"0.0-3.118-2.118","vdkhe9nakrjyh65",152,"151.csv","","null","resources/images/coin2.png","null","",NA,NA,NA,NA,""
"image-keyboard-response",368,321202,"0.0-3.119-0.119","vdkhe9nakrjyh65",152,"151.csv","","253.69999998807907","resources/trios/L1T4A2.jpg","37","restless",0.5,0.6,0.1,0.735890737309137,"false"
"image-keyboard-response",369,321636,"0.0-3.119-1.119","vdkhe9nakrjyh65",152,"151.csv","","null","resources/maskTrios/L1BB.jpg","null","",NA,NA,NA,NA,""
"image-keyboard-response",370,322858,"0.0-3.119-2.119","vdkhe9nakrjyh65",152,"151.csv","","null","resources/images/fishbone.png","null","",NA,NA,NA,NA,""
"image-keyboard-response",371,323070,"0.0-3.120-0.120","vdkhe9nakrjyh65",152,"151.csv","","210.79999999701977","resources/trios/L4T1A3.jpg","39","restless",0.5,0.6,0.1,0.814520557903151,"false"
"image-keyboard-response",372,323478,"0.0-3.120-1.120","vdkhe9nakrjyh65",152,"151.csv","","null","resources/maskTrios/BBA3.jpg","null","",NA,NA,NA,NA,""
"image-keyboard-response",373,324693,"0.0-3.120-2.120","vdkhe9nakrjyh65",152,"151.csv","","null","resources/images/fishbone.png","null","",NA,NA,NA,NA,""
"image-keyboard-response",374,324872,"0.0-3.121-0.121","vdkhe9nakrjyh65",152,"151.csv","","177","resources/trios/L1T4A3.jpg","38","restless",0.5,0.6,0.1,0.686188508570343,"false"
"image-keyboard-response",375,325282,"0.0-3.121-1.121","vdkhe9nakrjyh65",152,"151.csv","","null","resources/maskTrios/BT4B.jpg","null","",NA,NA,NA,NA,""
"image-keyboard-response",376,326493,"0.0-3.121-2.121","vdkhe9nakrjyh65",152,"151.csv","","null","resources/images/fishbone.png","null","",NA,NA,NA,NA,""
"image-keyboard-response",377,326648,"0.0-3.122-0.122","vdkhe9nakrjyh65",152,"151.csv","","152.70000000298023","resources/trios/L4T4A3.jpg","37","restless",0.6,0.6,0.2,0.683295085550452,"false"
"image-keyboard-response",378,327075,"0.0-3.122-1.122","vdkhe9nakrjyh65",152,"151.csv","","null","resources/maskTrios/L4BB.jpg","null","",NA,NA,NA,NA,""
"image-keyboard-response",379,328286,"0.0-3.122-2.122","vdkhe9nakrjyh65",152,"151.csv","","null","resources/images/fishbone.png","null","",NA,NA,NA,NA,""
"image-keyboard-response",380,328544,"0.0-3.123-0.123","vdkhe9nakrjyh65",152,"151.csv","","256","resources/trios/L4T4A2.jpg","39","restless",0.6,0.5,0.2,0.71852287640831,"false"
"image-keyboard-response",381,328966,"0.0-3.123-1.123","vdkhe9nakrjyh65",152,"151.csv","","null","resources/maskTrios/BBA2.jpg","null","",NA,NA,NA,NA,""
"image-keyboard-response",382,330183,"0.0-3.123-2.123","vdkhe9nakrjyh65",152,"151.csv","","null","resources/images/fishbone.png","null","",NA,NA,NA,NA,""
"image-keyboard-response",383,330326,"0.0-3.124-0.124","vdkhe9nakrjyh65",152,"151.csv","","140.90000000596046","resources/trios/L4T1A3.jpg","38","restless",0.6,0.4,0.2,0.0387515316219325,"true"
"image-keyboard-response",384,330737,"0.0-3.124-1.124","vdkhe9nakrjyh65",152,"151.csv","","null","resources/maskTrios/BT1B.jpg","null","",NA,NA,NA,NA,""
"image-keyboard-response",385,331944,"0.0-3.124-2.124","vdkhe9nakrjyh65",152,"151.csv","","null","resources/images/coin2.png","null","",NA,NA,NA,NA,""
"image-keyboard-response",386,332183,"0.0-3.125-0.125","vdkhe9nakrjyh65",152,"151.csv","","238.20000000298023","resources/trios/L4T1A3.jpg","38","restless",0.6,0.4,0.2,0.421810592386839,"false"
"image-keyboard-response",387,332592,"0.0-3.125-1.125","vdkhe9nakrjyh65",152,"151.csv","","null","resources/maskTrios/BT1B.jpg","null","",NA,NA,NA,NA,""
"image-keyboard-response",388,333815,"0.0-3.125-2.125","vdkhe9nakrjyh65",152,"151.csv","","null","resources/images/fishbone.png","null","",NA,NA,NA,NA,""
"image-keyboard-response",389,333870,"0.0-3.126-0.126","vdkhe9nakrjyh65",152,"151.csv","","53.400000005960464","resources/trios/L4T4A2.jpg","37","restless",0.6,0.4,0.2,0.0323936748262073,"true"
"image-keyboard-response",390,334291,"0.0-3.126-1.126","vdkhe9nakrjyh65",152,"151.csv","","null","resources/maskTrios/L4BB.jpg","null","",NA,NA,NA,NA,""
"image-keyboard-response",391,335509,"0.0-3.126-2.126","vdkhe9nakrjyh65",152,"151.csv","","null","resources/images/coin2.png","null","",NA,NA,NA,NA,""
"image-keyboard-response",392,335801,"0.0-3.127-0.127","vdkhe9nakrjyh65",152,"151.csv","","289.5","resources/trios/L4T4A2.jpg","37","restless",0.6,0.4,0.2,0.801088978629273,"false"
"image-keyboard-response",393,336219,"0.0-3.127-1.127","vdkhe9nakrjyh65",152,"151.csv","","null","resources/maskTrios/L4BB.jpg","null","",NA,NA,NA,NA,""
"image-keyboard-response",394,337446,"0.0-3.127-2.127","vdkhe9nakrjyh65",152,"151.csv","","null","resources/images/fishbone.png","null","",NA,NA,NA,NA,""
"image-keyboard-response",395,337682,"0.0-3.128-0.128","vdkhe9nakrjyh65",152,"151.csv","","234","resources/trios/L1T4A2.jpg","39","restless",0.6,0.4,0.2,0.763298290956573,"false"
"image-keyboard-response",396,338105,"0.0-3.128-1.128","vdkhe9nakrjyh65",152,"151.csv","","null","resources/maskTrios/BBA2.jpg","null","",NA,NA,NA,NA,""
"image-keyboard-response",397,339308,"0.0-3.128-2.128","vdkhe9nakrjyh65",152,"151.csv","","null","resources/images/fishbone.png","null","",NA,NA,NA,NA,""
"image-keyboard-response",398,339418,"0.0-3.129-0.129","vdkhe9nakrjyh65",152,"151.csv","","108.29999999701977","resources/trios/L4T4A2.jpg","38","restless",0.6,0.4,0.3,0.56759655232799,"false"
"image-keyboard-response",399,339841,"0.0-3.129-1.129","vdkhe9nakrjyh65",152,"151.csv","","null","resources/maskTrios/BT4B.jpg","null","",NA,NA,NA,NA,""
"image-keyboard-response",400,341054,"0.0-3.129-2.129","vdkhe9nakrjyh65",152,"151.csv","","null","resources/images/fishbone.png","null","",NA,NA,NA,NA,""
"image-keyboard-response",401,341313,"0.0-3.130-0.130","vdkhe9nakrjyh65",152,"151.csv","","257.29999999701977","resources/trios/L1T1A3.jpg","37","restless",0.7,0.4,0.3,0.404448229690192,"true"
"image-keyboard-response",402,341728,"0.0-3.130-1.130","vdkhe9nakrjyh65",152,"151.csv","","null","resources/maskTrios/L1BB.jpg","null","",NA,NA,NA,NA,""
"image-keyboard-response",403,342942,"0.0-3.130-2.130","vdkhe9nakrjyh65",152,"151.csv","","null","resources/images/coin2.png","null","",NA,NA,NA,NA,""
"image-keyboard-response",404,343169,"0.0-3.131-0.131","vdkhe9nakrjyh65",152,"151.csv","","224.5","resources/trios/L4T1A2.jpg","37","restless",0.7,0.4,0.3,0.447775124218289,"true"
"image-keyboard-response",405,343573,"0.0-3.131-1.131","vdkhe9nakrjyh65",152,"151.csv","","null","resources/maskTrios/L4BB.jpg","null","",NA,NA,NA,NA,""
"image-keyboard-response",406,344786,"0.0-3.131-2.131","vdkhe9nakrjyh65",152,"151.csv","","null","resources/images/coin2.png","null","",NA,NA,NA,NA,""
"image-keyboard-response",407,345094,"0.0-3.132-0.132","vdkhe9nakrjyh65",152,"151.csv","","306.69999998807907","resources/trios/L4T1A3.jpg","37","restless",0.7,0.4,0.3,0.512294665347759,"true"
"image-keyboard-response",408,345508,"0.0-3.132-1.132","vdkhe9nakrjyh65",152,"151.csv","","null","resources/maskTrios/L4BB.jpg","null","",NA,NA,NA,NA,""
"image-keyboard-response",409,346728,"0.0-3.132-2.132","vdkhe9nakrjyh65",152,"151.csv","","null","resources/images/coin2.png","null","",NA,NA,NA,NA,""
"image-keyboard-response",410,347203,"0.0-3.133-0.133","vdkhe9nakrjyh65",152,"151.csv","","472.8999999910593","resources/trios/L4T4A3.jpg","37","restless",0.7,0.4,0.3,0.228309659983297,"true"
"image-keyboard-response",411,347619,"0.0-3.133-1.133","vdkhe9nakrjyh65",152,"151.csv","","null","resources/maskTrios/L4BB.jpg","null","",NA,NA,NA,NA,""
"image-keyboard-response",412,348829,"0.0-3.133-2.133","vdkhe9nakrjyh65",152,"151.csv","","null","resources/images/coin2.png","null","",NA,NA,NA,NA,""
"image-keyboard-response",413,349184,"0.0-3.134-0.134","vdkhe9nakrjyh65",152,"151.csv","","353.5","resources/trios/L1T1A3.jpg","37","restless",0.7,0.4,0.3,0.0128543966995636,"true"
"image-keyboard-response",414,349590,"0.0-3.134-1.134","vdkhe9nakrjyh65",152,"151.csv","","null","resources/maskTrios/L1BB.jpg","null","",NA,NA,NA,NA,""
"image-keyboard-response",415,350805,"0.0-3.134-2.134","vdkhe9nakrjyh65",152,"151.csv","","null","resources/images/coin2.png","null","",NA,NA,NA,NA,""
"image-keyboard-response",416,351127,"0.0-3.135-0.135","vdkhe9nakrjyh65",152,"151.csv","","319.6000000089407","resources/trios/L4T1A2.jpg","37","restless",0.7,0.4,0.3,0.156645034523102,"true"
"image-keyboard-response",417,351541,"0.0-3.135-1.135","vdkhe9nakrjyh65",152,"151.csv","","null","resources/maskTrios/L4BB.jpg","null","",NA,NA,NA,NA,""
"image-keyboard-response",418,352759,"0.0-3.135-2.135","vdkhe9nakrjyh65",152,"151.csv","","null","resources/images/coin2.png","null","",NA,NA,NA,NA,""
"image-keyboard-response",419,353079,"0.0-3.136-0.136","vdkhe9nakrjyh65",152,"151.csv","","318.59999999403954","resources/trios/L4T4A3.jpg","37","restless",0.7,0.3,0.3,0.0792288417742484,"true"
"image-keyboard-response",420,353498,"0.0-3.136-1.136","vdkhe9nakrjyh65",152,"151.csv","","null","resources/maskTrios/L4BB.jpg","null","",NA,NA,NA,NA,""
"image-keyboard-response",421,354711,"0.0-3.136-2.136","vdkhe9nakrjyh65",152,"151.csv","","null","resources/images/coin2.png","null","",NA,NA,NA,NA,""
"image-keyboard-response",422,355226,"0.0-3.137-0.137","vdkhe9nakrjyh65",152,"151.csv","","513.2999999970198","resources/trios/L4T4A2.jpg","37","restless",0.7,0.3,0.3,0.187882729505905,"true"
"image-keyboard-response",423,355643,"0.0-3.137-1.137","vdkhe9nakrjyh65",152,"151.csv","","null","resources/maskTrios/L4BB.jpg","null","",NA,NA,NA,NA,""
"image-keyboard-response",424,356854,"0.0-3.137-2.137","vdkhe9nakrjyh65",152,"151.csv","","null","resources/images/coin2.png","null","",NA,NA,NA,NA,""
"image-keyboard-response",425,357403,"0.0-3.138-0.138","vdkhe9nakrjyh65",152,"151.csv","","546.8000000119209","resources/trios/L1T4A3.jpg","37","restless",0.7,0.3,0.3,0.383702313444036,"true"
"image-keyboard-response",426,357825,"0.0-3.138-1.138","vdkhe9nakrjyh65",152,"151.csv","","null","resources/maskTrios/L1BB.jpg","null","",NA,NA,NA,NA,""
"image-keyboard-response",427,359040,"0.0-3.138-2.138","vdkhe9nakrjyh65",152,"151.csv","","null","resources/images/coin2.png","null","",NA,NA,NA,NA,""
"image-keyboard-response",428,359407,"0.0-3.139-0.139","vdkhe9nakrjyh65",152,"151.csv","","366","resources/trios/L1T1A2.jpg","37","restless",0.7,0.3,0.3,0.521906085099365,"true"
"image-keyboard-response",429,359821,"0.0-3.139-1.139","vdkhe9nakrjyh65",152,"151.csv","","null","resources/maskTrios/L1BB.jpg","null","",NA,NA,NA,NA,""
"image-keyboard-response",430,361038,"0.0-3.139-2.139","vdkhe9nakrjyh65",152,"151.csv","","null","resources/images/coin2.png","null","",NA,NA,NA,NA,""
"image-keyboard-response",431,361274,"0.0-3.140-0.140","vdkhe9nakrjyh65",152,"151.csv","","234.5","resources/trios/L1T1A2.jpg","37","restless",0.7,0.3,0.3,0.910626299059855,"false"
"image-keyboard-response",432,361685,"0.0-3.140-1.140","vdkhe9nakrjyh65",152,"151.csv","","null","resources/maskTrios/L1BB.jpg","null","",NA,NA,NA,NA,""
"image-keyboard-response",433,362899,"0.0-3.140-2.140","vdkhe9nakrjyh65",152,"151.csv","","null","resources/images/fishbone.png","null","",NA,NA,NA,NA,""
"image-keyboard-response",434,363280,"0.0-3.141-0.141","vdkhe9nakrjyh65",152,"151.csv","","379.5","resources/trios/L4T4A2.jpg","39","restless",0.7,0.4,0.3,0.0588052680549724,"true"
"image-keyboard-response",435,363701,"0.0-3.141-1.141","vdkhe9nakrjyh65",152,"151.csv","","null","resources/maskTrios/BBA2.jpg","null","",NA,NA,NA,NA,""
"image-keyboard-response",436,364910,"0.0-3.141-2.141","vdkhe9nakrjyh65",152,"151.csv","","null","resources/images/coin2.png","null","",NA,NA,NA,NA,""
"image-keyboard-response",437,365520,"0.0-3.142-0.142","vdkhe9nakrjyh65",152,"151.csv","","607.7999999970198","resources/trios/L1T1A3.jpg","39","restless",0.7,0.4,0.3,0.741019955773514,"false"
"image-keyboard-response",438,365931,"0.0-3.142-1.142","vdkhe9nakrjyh65",152,"151.csv","","null","resources/maskTrios/BBA3.jpg","null","",NA,NA,NA,NA,""
"image-keyboard-response",439,367161,"0.0-3.142-2.142","vdkhe9nakrjyh65",152,"151.csv","","null","resources/images/fishbone.png","null","",NA,NA,NA,NA,""
"image-keyboard-response",440,367525,"0.0-3.143-0.143","vdkhe9nakrjyh65",152,"151.csv","","362.29999999701977","resources/trios/L1T1A2.jpg","38","restless",0.7,0.4,0.3,0.879788536852973,"false"
"image-keyboard-response",441,367939,"0.0-3.143-1.143","vdkhe9nakrjyh65",152,"151.csv","","null","resources/maskTrios/BT1B.jpg","null","",NA,NA,NA,NA,""
"image-keyboard-response",442,369149,"0.0-3.143-2.143","vdkhe9nakrjyh65",152,"151.csv","","null","resources/images/fishbone.png","null","",NA,NA,NA,NA,""
"image-keyboard-response",443,369539,"0.0-3.144-0.144","vdkhe9nakrjyh65",152,"151.csv","","387.59999999403954","resources/trios/L4T4A3.jpg","37","restless",0.7,0.4,0.4,0.582314717434883,"true"
"image-keyboard-response",444,369948,"0.0-3.144-1.144","vdkhe9nakrjyh65",152,"151.csv","","null","resources/maskTrios/L4BB.jpg","null","",NA,NA,NA,NA,""
"image-keyboard-response",445,371161,"0.0-3.144-2.144","vdkhe9nakrjyh65",152,"151.csv","","null","resources/images/coin2.png","null","",NA,NA,NA,NA,""
"image-keyboard-response",446,371545,"0.0-3.145-0.145","vdkhe9nakrjyh65",152,"151.csv","","383.1000000089407","resources/trios/L1T1A2.jpg","37","restless",0.7,0.4,0.5,0.273898924746422,"true"
"image-keyboard-response",447,371980,"0.0-3.145-1.145","vdkhe9nakrjyh65",152,"151.csv","","null","resources/maskTrios/L1BB.jpg","null","",NA,NA,NA,NA,""
"image-keyboard-response",448,373187,"0.0-3.145-2.145","vdkhe9nakrjyh65",152,"151.csv","","null","resources/images/coin2.png","null","",NA,NA,NA,NA,""
"image-keyboard-response",449,373678,"0.0-3.146-0.146","vdkhe9nakrjyh65",152,"151.csv","","489.40000000596046","resources/trios/L1T4A3.jpg","37","restless",0.7,0.4,0.5,0.147181083704058,"true"
"image-keyboard-response",450,374095,"0.0-3.146-1.146","vdkhe9nakrjyh65",152,"151.csv","","null","resources/maskTrios/L1BB.jpg","null","",NA,NA,NA,NA,""
"image-keyboard-response",451,375307,"0.0-3.146-2.146","vdkhe9nakrjyh65",152,"151.csv","","null","resources/images/coin2.png","null","",NA,NA,NA,NA,""
"image-keyboard-response",452,375733,"0.0-3.147-0.147","vdkhe9nakrjyh65",152,"151.csv","","424.8999999910593","resources/trios/L4T1A2.jpg","37","restless",0.7,0.4,0.5,0.802172307023297,"false"
"image-keyboard-response",453,376145,"0.0-3.147-1.147","vdkhe9nakrjyh65",152,"151.csv","","null","resources/maskTrios/L4BB.jpg","null","",NA,NA,NA,NA,""
"image-keyboard-response",454,377363,"0.0-3.147-2.147","vdkhe9nakrjyh65",152,"151.csv","","null","resources/images/fishbone.png","null","",NA,NA,NA,NA,""
"image-keyboard-response",455,377705,"0.0-3.148-0.148","vdkhe9nakrjyh65",152,"151.csv","","340.59999999403954","resources/trios/L1T4A3.jpg","38","restless",0.7,0.3,0.5,0.0199478885886191,"true"
"image-keyboard-response",456,378127,"0.0-3.148-1.148","vdkhe9nakrjyh65",152,"151.csv","","null","resources/maskTrios/BT4B.jpg","null","",NA,NA,NA,NA,""
"image-keyboard-response",457,379345,"0.0-3.148-2.148","vdkhe9nakrjyh65",152,"151.csv","","null","resources/images/coin2.png","null","",NA,NA,NA,NA,""
"image-keyboard-response",458,379847,"0.0-3.149-0.149","vdkhe9nakrjyh65",152,"151.csv","","499.59999999403954","resources/trios/L1T1A2.jpg","38","restless",0.7,0.3,0.5,0.918636989187506,"false"
"image-keyboard-response",459,380254,"0.0-3.149-1.149","vdkhe9nakrjyh65",152,"151.csv","","null","resources/maskTrios/BT1B.jpg","null","",NA,NA,NA,NA,""
"image-keyboard-response",460,381468,"0.0-3.149-2.149","vdkhe9nakrjyh65",152,"151.csv","","null","resources/images/fishbone.png","null","",NA,NA,NA,NA,""
"image-keyboard-response",461,381684,"0.0-3.150-0.150","vdkhe9nakrjyh65",152,"151.csv","","213.90000000596046","resources/trios/L4T1A2.jpg","39","restless",0.7,0.3,0.6,0.275095023623622,"true"
"image-keyboard-response",462,382101,"0.0-3.150-1.150","vdkhe9nakrjyh65",152,"151.csv","","null","resources/maskTrios/BBA2.jpg","null","",NA,NA,NA,NA,""
"image-keyboard-response",463,383306,"0.0-3.150-2.150","vdkhe9nakrjyh65",152,"151.csv","","null","resources/images/coin2.png","null","",NA,NA,NA,NA,""
"image-keyboard-response",464,383575,"0.0-3.151-0.151","vdkhe9nakrjyh65",152,"151.csv","","266.20000000298023","resources/trios/L1T4A2.jpg","39","restless",0.6,0.3,0.6,0.930740785240131,"false"
"image-keyboard-response",465,383989,"0.0-3.151-1.151","vdkhe9nakrjyh65",152,"151.csv","","null","resources/maskTrios/BBA2.jpg","null","",NA,NA,NA,NA,""
"image-keyboard-response",466,385197,"0.0-3.151-2.151","vdkhe9nakrjyh65",152,"151.csv","","null","resources/images/fishbone.png","null","",NA,NA,NA,NA,""
"image-keyboard-response",467,385538,"0.0-3.152-0.152","vdkhe9nakrjyh65",152,"151.csv","","339.3999999910593","resources/trios/L4T4A2.jpg","38","restless",0.6,0.3,0.7,0.954047764459263,"false"
"image-keyboard-response",468,385956,"0.0-3.152-1.152","vdkhe9nakrjyh65",152,"151.csv","","null","resources/maskTrios/BT4B.jpg","null","",NA,NA,NA,NA,""
"image-keyboard-response",469,387172,"0.0-3.152-2.152","vdkhe9nakrjyh65",152,"151.csv","","null","resources/images/fishbone.png","null","",NA,NA,NA,NA,""
"image-keyboard-response",470,387583,"0.0-3.153-0.153","vdkhe9nakrjyh65",152,"151.csv","","408.40000000596046","resources/trios/L4T4A2.jpg","37","restless",0.6,0.3,0.7,0.193213396220775,"true"
"image-keyboard-response",471,387994,"0.0-3.153-1.153","vdkhe9nakrjyh65",152,"151.csv","","null","resources/maskTrios/L4BB.jpg","null","",NA,NA,NA,NA,""
"image-keyboard-response",472,389206,"0.0-3.153-2.153","vdkhe9nakrjyh65",152,"151.csv","","null","resources/images/coin2.png","null","",NA,NA,NA,NA,""
"image-keyboard-response",473,390498,"0.0-3.154-0.154","vdkhe9nakrjyh65",152,"151.csv","","1290.6000000089407","resources/trios/L4T1A2.jpg","37","restless",0.6,0.3,0.8,0.0516638583714175,"true"
"image-keyboard-response",474,390915,"0.0-3.154-1.154","vdkhe9nakrjyh65",152,"151.csv","","null","resources/maskTrios/L4BB.jpg","null","",NA,NA,NA,NA,""
"image-keyboard-response",475,392130,"0.0-3.154-2.154","vdkhe9nakrjyh65",152,"151.csv","","null","resources/images/coin2.png","null","",NA,NA,NA,NA,""
"image-keyboard-response",476,393729,"0.0-3.155-0.155","vdkhe9nakrjyh65",152,"151.csv","","1596.3999999910593","resources/trios/L4T4A2.jpg","37","restless",0.6,0.4,0.8,0.203066177051856,"true"
"image-keyboard-response",477,394151,"0.0-3.155-1.155","vdkhe9nakrjyh65",152,"151.csv","","null","resources/maskTrios/L4BB.jpg","null","",NA,NA,NA,NA,""
"image-keyboard-response",478,395367,"0.0-3.155-2.155","vdkhe9nakrjyh65",152,"151.csv","","null","resources/images/coin2.png","null","",NA,NA,NA,NA,""
"image-keyboard-response",479,397031,"0.0-3.156-0.156","vdkhe9nakrjyh65",152,"151.csv","","1662.5","resources/trios/L1T4A3.jpg","37","restless",0.6,0.4,0.8,0.126152522186483,"true"
"image-keyboard-response",480,397453,"0.0-3.156-1.156","vdkhe9nakrjyh65",152,"151.csv","","null","resources/maskTrios/L1BB.jpg","null","",NA,NA,NA,NA,""
"image-keyboard-response",481,398660,"0.0-3.156-2.156","vdkhe9nakrjyh65",152,"151.csv","","null","resources/images/coin2.png","null","",NA,NA,NA,NA,""
"image-keyboard-response",482,399486,"0.0-3.157-0.157","vdkhe9nakrjyh65",152,"151.csv","","824.6999999880791","resources/trios/L1T1A2.jpg","37","restless",0.6,0.4,0.8,0.994603834109643,"false"
"image-keyboard-response",483,399891,"0.0-3.157-1.157","vdkhe9nakrjyh65",152,"151.csv","","null","resources/maskTrios/L1BB.jpg","null","",NA,NA,NA,NA,""
"image-keyboard-response",484,401112,"0.0-3.157-2.157","vdkhe9nakrjyh65",152,"151.csv","","null","resources/images/fishbone.png","null","",NA,NA,NA,NA,""
"image-keyboard-response",485,403121,"0.0-3.158-0.158","vdkhe9nakrjyh65",152,"151.csv","","2007","resources/trios/L1T1A2.jpg","39","restless",0.6,0.4,0.8,0.725096718383845,"true"
"image-keyboard-response",486,403532,"0.0-3.158-1.158","vdkhe9nakrjyh65",152,"151.csv","","null","resources/maskTrios/BBA2.jpg","null","",NA,NA,NA,NA,""
"image-keyboard-response",487,404742,"0.0-3.158-2.158","vdkhe9nakrjyh65",152,"151.csv","","null","resources/images/coin2.png","null","",NA,NA,NA,NA,""
"image-keyboard-response",488,405015,"0.0-3.159-0.159","vdkhe9nakrjyh65",152,"151.csv","","271.1000000089407","resources/trios/L1T1A2.jpg","39","restless",0.6,0.4,0.8,0.329426478069631,"true"
"image-keyboard-response",489,405418,"0.0-3.159-1.159","vdkhe9nakrjyh65",152,"151.csv","","null","resources/maskTrios/BBA2.jpg","null","",NA,NA,NA,NA,""
"image-keyboard-response",490,406644,"0.0-3.159-2.159","vdkhe9nakrjyh65",152,"151.csv","","null","resources/images/coin2.png","null","",NA,NA,NA,NA,""
"image-keyboard-response",491,406989,"0.0-3.160-0.160","vdkhe9nakrjyh65",152,"151.csv","","343.5","resources/trios/L1T1A2.jpg","39","restless",0.5,0.4,0.8,0.0717532832160257,"true"
"image-keyboard-response",492,407408,"0.0-3.160-1.160","vdkhe9nakrjyh65",152,"151.csv","","null","resources/maskTrios/BBA2.jpg","null","",NA,NA,NA,NA,""
"image-keyboard-response",493,408610,"0.0-3.160-2.160","vdkhe9nakrjyh65",152,"151.csv","","null","resources/images/coin2.png","null","",NA,NA,NA,NA,""
"image-keyboard-response",494,409152,"0.0-3.161-0.161","vdkhe9nakrjyh65",152,"151.csv","","540.7999999970198","resources/trios/L4T1A3.jpg","39","restless",0.5,0.4,0.8,0.362444704137743,"true"
"image-keyboard-response",495,409564,"0.0-3.161-1.161","vdkhe9nakrjyh65",152,"151.csv","","null","resources/maskTrios/BBA3.jpg","null","",NA,NA,NA,NA,""
"image-keyboard-response",496,410772,"0.0-3.161-2.161","vdkhe9nakrjyh65",152,"151.csv","","null","resources/images/coin2.png","null","",NA,NA,NA,NA,""
"image-keyboard-response",497,411424,"0.0-3.162-0.162","vdkhe9nakrjyh65",152,"151.csv","","650.2000000029802","resources/trios/L4T4A2.jpg","39","restless",0.5,0.4,0.8,0.195907924291377,"true"
"image-keyboard-response",498,411844,"0.0-3.162-1.162","vdkhe9nakrjyh65",152,"151.csv","","null","resources/maskTrios/BBA2.jpg","null","",NA,NA,NA,NA,""
"image-keyboard-response",499,413063,"0.0-3.162-2.162","vdkhe9nakrjyh65",152,"151.csv","","null","resources/images/coin2.png","null","",NA,NA,NA,NA,""
"image-keyboard-response",500,413570,"0.0-3.163-0.163","vdkhe9nakrjyh65",152,"151.csv","","506","resources/trios/L4T4A3.jpg","39","restless",0.5,0.4,0.8,0.72296786576318,"true"
"image-keyboard-response",501,414001,"0.0-3.163-1.163","vdkhe9nakrjyh65",152,"151.csv","","null","resources/maskTrios/BBA3.jpg","null","",NA,NA,NA,NA,""
"image-keyboard-response",502,415218,"0.0-3.163-2.163","vdkhe9nakrjyh65",152,"151.csv","","null","resources/images/coin2.png","null","",NA,NA,NA,NA,""
"image-keyboard-response",503,416407,"0.0-3.164-0.164","vdkhe9nakrjyh65",152,"151.csv","","1187.2999999970198","resources/trios/L1T1A2.jpg","39","restless",0.5,0.4,0.8,0.762930756894671,"true"
"image-keyboard-response",504,416821,"0.0-3.164-1.164","vdkhe9nakrjyh65",152,"151.csv","","null","resources/maskTrios/BBA2.jpg","null","",NA,NA,NA,NA,""
"image-keyboard-response",505,418032,"0.0-3.164-2.164","vdkhe9nakrjyh65",152,"151.csv","","null","resources/images/coin2.png","null","",NA,NA,NA,NA,""
"image-keyboard-response",506,418741,"0.0-3.165-0.165","vdkhe9nakrjyh65",152,"151.csv","","708.3000000119209","resources/trios/L4T4A3.jpg","39","restless",0.5,0.4,0.8,0.67319798285902,"true"
"image-keyboard-response",507,419163,"0.0-3.165-1.165","vdkhe9nakrjyh65",152,"151.csv","","null","resources/maskTrios/BBA3.jpg","null","",NA,NA,NA,NA,""
"image-keyboard-response",508,420380,"0.0-3.165-2.165","vdkhe9nakrjyh65",152,"151.csv","","null","resources/images/coin2.png","null","",NA,NA,NA,NA,""
"image-keyboard-response",509,420881,"0.0-3.166-0.166","vdkhe9nakrjyh65",152,"151.csv","","499.19999998807907","resources/trios/L1T4A3.jpg","39","restless",0.5,0.4,0.8,0.489629846241532,"true"
"image-keyboard-response",510,421303,"0.0-3.166-1.166","vdkhe9nakrjyh65",152,"151.csv","","null","resources/maskTrios/BBA3.jpg","null","",NA,NA,NA,NA,""
"image-keyboard-response",511,422521,"0.0-3.166-2.166","vdkhe9nakrjyh65",152,"151.csv","","null","resources/images/coin2.png","null","",NA,NA,NA,NA,""
"image-keyboard-response",512,422973,"0.0-3.167-0.167","vdkhe9nakrjyh65",152,"151.csv","","450.79999999701977","resources/trios/L4T1A2.jpg","39","restless",0.5,0.5,0.8,0.667769455286485,"true"
"image-keyboard-response",513,423390,"0.0-3.167-1.167","vdkhe9nakrjyh65",152,"151.csv","","null","resources/maskTrios/BBA2.jpg","null","",NA,NA,NA,NA,""
"image-keyboard-response",514,424607,"0.0-3.167-2.167","vdkhe9nakrjyh65",152,"151.csv","","null","resources/images/coin2.png","null","",NA,NA,NA,NA,""
"image-keyboard-response",515,425266,"0.0-3.168-0.168","vdkhe9nakrjyh65",152,"151.csv","","655.7999999970198","resources/trios/L4T1A2.jpg","39","restless",0.5,0.5,0.8,0.231131720878665,"true"
"image-keyboard-response",516,425685,"0.0-3.168-1.168","vdkhe9nakrjyh65",152,"151.csv","","null","resources/maskTrios/BBA2.jpg","null","",NA,NA,NA,NA,""
"image-keyboard-response",517,426895,"0.0-3.168-2.168","vdkhe9nakrjyh65",152,"151.csv","","null","resources/images/coin2.png","null","",NA,NA,NA,NA,""
"image-keyboard-response",518,427637,"0.0-3.169-0.169","vdkhe9nakrjyh65",152,"151.csv","","740","resources/trios/L4T1A3.jpg","39","restless",0.5,0.5,0.8,0.95786381816442,"false"
"image-keyboard-response",519,428053,"0.0-3.169-1.169","vdkhe9nakrjyh65",152,"151.csv","","null","resources/maskTrios/BBA3.jpg","null","",NA,NA,NA,NA,""
"image-keyboard-response",520,429258,"0.0-3.169-2.169","vdkhe9nakrjyh65",152,"151.csv","","null","resources/images/fishbone.png","null","",NA,NA,NA,NA,""
"image-keyboard-response",521,430079,"0.0-3.170-0.170","vdkhe9nakrjyh65",152,"151.csv","","819.7999999970198","resources/trios/L4T1A3.jpg","38","restless",0.5,0.5,0.8,0.668730442356943,"false"
"image-keyboard-response",522,430497,"0.0-3.170-1.170","vdkhe9nakrjyh65",152,"151.csv","","null","resources/maskTrios/BT1B.jpg","null","",NA,NA,NA,NA,""
"image-keyboard-response",523,431702,"0.0-3.170-2.170","vdkhe9nakrjyh65",152,"151.csv","","null","resources/images/fishbone.png","null","",NA,NA,NA,NA,""
"image-keyboard-response",524,432375,"0.0-3.171-0.171","vdkhe9nakrjyh65",152,"151.csv","","670.9000000059605","resources/trios/L1T4A3.jpg","37","restless",0.5,0.5,0.8,0.801405131105202,"false"
"image-keyboard-response",525,432788,"0.0-3.171-1.171","vdkhe9nakrjyh65",152,"151.csv","","null","resources/maskTrios/L1BB.jpg","null","",NA,NA,NA,NA,""
"image-keyboard-response",526,434008,"0.0-3.171-2.171","vdkhe9nakrjyh65",152,"151.csv","","null","resources/images/fishbone.png","null","",NA,NA,NA,NA,""
"image-keyboard-response",527,434303,"0.0-3.172-0.172","vdkhe9nakrjyh65",152,"151.csv","","293.20000000298023","resources/trios/L4T4A3.jpg","39","restless",0.5,0.5,0.9,0.30770386041784,"true"
"image-keyboard-response",528,434717,"0.0-3.172-1.172","vdkhe9nakrjyh65",152,"151.csv","","null","resources/maskTrios/BBA3.jpg","null","",NA,NA,NA,NA,""
"image-keyboard-response",529,435927,"0.0-3.172-2.172","vdkhe9nakrjyh65",152,"151.csv","","null","resources/images/coin2.png","null","",NA,NA,NA,NA,""
"image-keyboard-response",530,436926,"0.0-3.173-0.173","vdkhe9nakrjyh65",152,"151.csv","","997.2999999970198","resources/trios/L1T4A2.jpg","38","restless",0.5,0.5,0.9,0.0576421492432075,"true"
"image-keyboard-response",531,437344,"0.0-3.173-1.173","vdkhe9nakrjyh65",152,"151.csv","","null","resources/maskTrios/BT4B.jpg","null","",NA,NA,NA,NA,""
"image-keyboard-response",532,438568,"0.0-3.173-2.173","vdkhe9nakrjyh65",152,"151.csv","","null","resources/images/coin2.png","null","",NA,NA,NA,NA,""
"image-keyboard-response",533,438903,"0.0-3.174-0.174","vdkhe9nakrjyh65",152,"151.csv","","332.09999999403954","resources/trios/L1T1A2.jpg","38","restless",0.5,0.5,0.9,0.211959043700545,"true"
"image-keyboard-response",534,439318,"0.0-3.174-1.174","vdkhe9nakrjyh65",152,"151.csv","","null","resources/maskTrios/BT1B.jpg","null","",NA,NA,NA,NA,""
"image-keyboard-response",535,440538,"0.0-3.174-2.174","vdkhe9nakrjyh65",152,"151.csv","","null","resources/images/coin2.png","null","",NA,NA,NA,NA,""
"image-keyboard-response",536,440904,"0.0-3.175-0.175","vdkhe9nakrjyh65",152,"151.csv","","364.20000000298023","resources/trios/L1T4A2.jpg","38","restless",0.5,0.5,0.9,0.522233914232872,"false"
"image-keyboard-response",537,441326,"0.0-3.175-1.175","vdkhe9nakrjyh65",152,"151.csv","","null","resources/maskTrios/BT4B.jpg","null","",NA,NA,NA,NA,""
"image-keyboard-response",538,442540,"0.0-3.175-2.175","vdkhe9nakrjyh65",152,"151.csv","","null","resources/images/fishbone.png","null","",NA,NA,NA,NA,""
"image-keyboard-response",539,442841,"0.0-3.176-0.176","vdkhe9nakrjyh65",152,"151.csv","","299.1000000089407","resources/trios/L4T4A3.jpg","37","restless",0.5,0.5,0.9,0.730936132602405,"false"
"image-keyboard-response",540,443255,"0.0-3.176-1.176","vdkhe9nakrjyh65",152,"151.csv","","null","resources/maskTrios/L4BB.jpg","null","",NA,NA,NA,NA,""
"image-keyboard-response",541,444476,"0.0-3.176-2.176","vdkhe9nakrjyh65",152,"151.csv","","null","resources/images/fishbone.png","null","",NA,NA,NA,NA,""
"image-keyboard-response",542,444785,"0.0-3.177-0.177","vdkhe9nakrjyh65",152,"151.csv","","306.90000000596046","resources/trios/L1T1A3.jpg","39","restless",0.5,0.5,0.9,0.284869276318068,"true"
"image-keyboard-response",543,445212,"0.0-3.177-1.177","vdkhe9nakrjyh65",152,"151.csv","","null","resources/maskTrios/BBA3.jpg","null","",NA,NA,NA,NA,""
"image-keyboard-response",544,446419,"0.0-3.177-2.177","vdkhe9nakrjyh65",152,"151.csv","","null","resources/images/coin2.png","null","",NA,NA,NA,NA,""
"image-keyboard-response",545,446702,"0.0-3.178-0.178","vdkhe9nakrjyh65",152,"151.csv","","281.79999999701977","resources/trios/L4T4A2.jpg","39","restless",0.5,0.4,0.9,0.291383343208569,"true"
"image-keyboard-response",546,447116,"0.0-3.178-1.178","vdkhe9nakrjyh65",152,"151.csv","","null","resources/maskTrios/BBA2.jpg","null","",NA,NA,NA,NA,""
"image-keyboard-response",547,448324,"0.0-3.178-2.178","vdkhe9nakrjyh65",152,"151.csv","","null","resources/images/coin2.png","null","",NA,NA,NA,NA,""
"image-keyboard-response",548,448695,"0.0-3.179-0.179","vdkhe9nakrjyh65",152,"151.csv","","370","resources/trios/L1T1A3.jpg","39","restless",0.5,0.4,0.8,0.600080558973631,"true"
"image-keyboard-response",549,449108,"0.0-3.179-1.179","vdkhe9nakrjyh65",152,"151.csv","","null","resources/maskTrios/BBA3.jpg","null","",NA,NA,NA,NA,""
"image-keyboard-response",550,450323,"0.0-3.179-2.179","vdkhe9nakrjyh65",152,"151.csv","","null","resources/images/coin2.png","null","",NA,NA,NA,NA,""
"image-keyboard-response",551,450665,"0.0-3.180-0.180","vdkhe9nakrjyh65",152,"151.csv","","339.3999999910593","resources/trios/L1T1A3.jpg","39","restless",0.5,0.4,0.8,0.978776736443401,"false"
"image-keyboard-response",552,451077,"0.0-3.180-1.180","vdkhe9nakrjyh65",152,"151.csv","","null","resources/maskTrios/BBA3.jpg","null","",NA,NA,NA,NA,""
"image-keyboard-response",553,452280,"0.0-3.180-2.180","vdkhe9nakrjyh65",152,"151.csv","","null","resources/images/fishbone.png","null","",NA,NA,NA,NA,""
"image-keyboard-response",554,452552,"0.0-3.181-0.181","vdkhe9nakrjyh65",152,"151.csv","","270.79999999701977","resources/trios/L4T4A3.jpg","38","restless",0.4,0.4,0.8,0.795964674837376,"false"
"image-keyboard-response",555,452961,"0.0-3.181-1.181","vdkhe9nakrjyh65",152,"151.csv","","null","resources/maskTrios/BT4B.jpg","null","",NA,NA,NA,NA,""
"image-keyboard-response",556,454177,"0.0-3.181-2.181","vdkhe9nakrjyh65",152,"151.csv","","null","resources/images/fishbone.png","null","",NA,NA,NA,NA,""
"image-keyboard-response",557,454463,"0.0-3.182-0.182","vdkhe9nakrjyh65",152,"151.csv","","284.1000000089407","resources/trios/L4T1A3.jpg","37","restless",0.4,0.4,0.8,0.15026261562265,"true"
"image-keyboard-response",558,454884,"0.0-3.182-1.182","vdkhe9nakrjyh65",152,"151.csv","","null","resources/maskTrios/L4BB.jpg","null","",NA,NA,NA,NA,""
"image-keyboard-response",559,456093,"0.0-3.182-2.182","vdkhe9nakrjyh65",152,"151.csv","","null","resources/images/coin2.png","null","",NA,NA,NA,NA,""
"image-keyboard-response",560,456396,"0.0-3.183-0.183","vdkhe9nakrjyh65",152,"151.csv","","302.09999999403954","resources/trios/L4T4A2.jpg","37","restless",0.4,0.4,0.8,0.560490496225758,"false"
"image-keyboard-response",561,456810,"0.0-3.183-1.183","vdkhe9nakrjyh65",152,"151.csv","","null","resources/maskTrios/L4BB.jpg","null","",NA,NA,NA,NA,""
"image-keyboard-response",562,458031,"0.0-3.183-2.183","vdkhe9nakrjyh65",152,"151.csv","","null","resources/images/fishbone.png","null","",NA,NA,NA,NA,""
"image-keyboard-response",563,458176,"0.0-3.184-0.184","vdkhe9nakrjyh65",152,"151.csv","","144","resources/trios/L1T4A3.jpg","39","restless",0.4,0.3,0.7,0.206812231650997,"true"
"image-keyboard-response",564,458638,"0.0-3.184-1.184","vdkhe9nakrjyh65",152,"151.csv","","null","resources/maskTrios/BBA3.jpg","null","",NA,NA,NA,NA,""
"image-keyboard-response",565,459866,"0.0-3.184-2.184","vdkhe9nakrjyh65",152,"151.csv","","null","resources/images/coin2.png","null","",NA,NA,NA,NA,""
"image-keyboard-response",566,460174,"0.0-3.185-0.185","vdkhe9nakrjyh65",152,"151.csv","","306.5","resources/trios/L4T4A2.jpg","39","restless",0.4,0.2,0.7,0.670182012463398,"true"
"image-keyboard-response",567,460599,"0.0-3.185-1.185","vdkhe9nakrjyh65",152,"151.csv","","null","resources/maskTrios/BBA2.jpg","null","",NA,NA,NA,NA,""
"image-keyboard-response",568,461809,"0.0-3.185-2.185","vdkhe9nakrjyh65",152,"151.csv","","null","resources/images/coin2.png","null","",NA,NA,NA,NA,""
"image-keyboard-response",569,462159,"0.0-3.186-0.186","vdkhe9nakrjyh65",152,"151.csv","","347.70000000298023","resources/trios/L1T4A3.jpg","39","restless",0.4,0.2,0.7,0.378741242599028,"true"
"image-keyboard-response",570,462581,"0.0-3.186-1.186","vdkhe9nakrjyh65",152,"151.csv","","null","resources/maskTrios/BBA3.jpg","null","",NA,NA,NA,NA,""
"image-keyboard-response",571,463803,"0.0-3.186-2.186","vdkhe9nakrjyh65",152,"151.csv","","null","resources/images/coin2.png","null","",NA,NA,NA,NA,""
"image-keyboard-response",572,464054,"0.0-3.187-0.187","vdkhe9nakrjyh65",152,"151.csv","","248.29999999701977","resources/trios/L4T1A3.jpg","39","restless",0.4,0.2,0.7,0.154730387186476,"true"
"image-keyboard-response",573,464475,"0.0-3.187-1.187","vdkhe9nakrjyh65",152,"151.csv","","null","resources/maskTrios/BBA3.jpg","null","",NA,NA,NA,NA,""
"image-keyboard-response",574,465681,"0.0-3.187-2.187","vdkhe9nakrjyh65",152,"151.csv","","null","resources/images/coin2.png","null","",NA,NA,NA,NA,""
"image-keyboard-response",575,465940,"0.0-3.188-0.188","vdkhe9nakrjyh65",152,"151.csv","","258.1000000089407","resources/trios/L4T1A2.jpg","39","restless",0.4,0.2,0.7,0.998568323403165,"false"
"image-keyboard-response",576,466343,"0.0-3.188-1.188","vdkhe9nakrjyh65",152,"151.csv","","null","resources/maskTrios/BBA2.jpg","null","",NA,NA,NA,NA,""
"image-keyboard-response",577,467556,"0.0-3.188-2.188","vdkhe9nakrjyh65",152,"151.csv","","null","resources/images/fishbone.png","null","",NA,NA,NA,NA,""
"image-keyboard-response",578,467634,"0.0-3.189-0.189","vdkhe9nakrjyh65",152,"151.csv","","75.90000000596046","resources/trios/L4T1A2.jpg","38","restless",0.4,0.2,0.7,0.451396036445268,"false"
"image-keyboard-response",579,468043,"0.0-3.189-1.189","vdkhe9nakrjyh65",152,"151.csv","","null","resources/maskTrios/BT1B.jpg","null","",NA,NA,NA,NA,""
"image-keyboard-response",580,469247,"0.0-3.189-2.189","vdkhe9nakrjyh65",152,"151.csv","","null","resources/images/fishbone.png","null","",NA,NA,NA,NA,""
"image-keyboard-response",581,469302,"0.0-3.190-0.190","vdkhe9nakrjyh65",152,"151.csv","","52.900000005960464","resources/trios/L1T1A3.jpg","37","restless",0.4,0.2,0.7,0.860360974946702,"false"
"image-keyboard-response",582,469721,"0.0-3.190-1.190","vdkhe9nakrjyh65",152,"151.csv","","null","resources/maskTrios/L1BB.jpg","null","",NA,NA,NA,NA,""
"image-keyboard-response",583,470946,"0.0-3.190-2.190","vdkhe9nakrjyh65",152,"151.csv","","null","resources/images/fishbone.png","null","",NA,NA,NA,NA,""
"image-keyboard-response",584,471059,"0.0-3.191-0.191","vdkhe9nakrjyh65",152,"151.csv","","111.20000000298023","resources/trios/L1T1A3.jpg","39","restless",0.4,0.2,0.6,0.87782710320191,"false"
"image-keyboard-response",585,471474,"0.0-3.191-1.191","vdkhe9nakrjyh65",152,"151.csv","","null","resources/maskTrios/BBA3.jpg","null","",NA,NA,NA,NA,""
"image-keyboard-response",586,472684,"0.0-3.191-2.191","vdkhe9nakrjyh65",152,"151.csv","","null","resources/images/fishbone.png","null","",NA,NA,NA,NA,""
"image-keyboard-response",587,472926,"0.0-3.192-0.192","vdkhe9nakrjyh65",152,"151.csv","","239.79999999701977","resources/trios/L4T4A3.jpg","38","restless",0.4,0.2,0.6,0.73354432435815,"false"
"image-keyboard-response",588,473350,"0.0-3.192-1.192","vdkhe9nakrjyh65",152,"151.csv","","null","resources/maskTrios/BT4B.jpg","null","",NA,NA,NA,NA,""
"image-keyboard-response",589,474573,"0.0-3.192-2.192","vdkhe9nakrjyh65",152,"151.csv","","null","resources/images/fishbone.png","null","",NA,NA,NA,NA,""
"image-keyboard-response",590,474926,"0.0-3.193-0.193","vdkhe9nakrjyh65",152,"151.csv","","351.29999999701977","resources/trios/L1T4A2.jpg","37","restless",0.4,0.2,0.6,0.852977195531394,"false"
"image-keyboard-response",591,475350,"0.0-3.193-1.193","vdkhe9nakrjyh65",152,"151.csv","","null","resources/maskTrios/L1BB.jpg","null","",NA,NA,NA,NA,""
"image-keyboard-response",592,476568,"0.0-3.193-2.193","vdkhe9nakrjyh65",152,"151.csv","","null","resources/images/fishbone.png","null","",NA,NA,NA,NA,""
"image-keyboard-response",593,477005,"0.0-3.194-0.194","vdkhe9nakrjyh65",152,"151.csv","","435.20000000298023","resources/trios/L4T4A2.jpg","39","restless",0.4,0.2,0.6,0.358124042370789,"true"
"image-keyboard-response",594,477428,"0.0-3.194-1.194","vdkhe9nakrjyh65",152,"151.csv","","null","resources/maskTrios/BBA2.jpg","null","",NA,NA,NA,NA,""
"image-keyboard-response",595,478632,"0.0-3.194-2.194","vdkhe9nakrjyh65",152,"151.csv","","null","resources/images/coin2.png","null","",NA,NA,NA,NA,""
"image-keyboard-response",596,479072,"0.0-3.195-0.195","vdkhe9nakrjyh65",152,"151.csv","","438.69999998807907","resources/trios/L4T1A3.jpg","39","restless",0.4,0.2,0.6,0.450041646546937,"true"
"image-keyboard-response",597,479489,"0.0-3.195-1.195","vdkhe9nakrjyh65",152,"151.csv","","null","resources/maskTrios/BBA3.jpg","null","",NA,NA,NA,NA,""
"image-keyboard-response",598,480710,"0.0-3.195-2.195","vdkhe9nakrjyh65",152,"151.csv","","null","resources/images/coin2.png","null","",NA,NA,NA,NA,""
"image-keyboard-response",599,481531,"0.0-3.196-0.196","vdkhe9nakrjyh65",152,"151.csv","","819.5","resources/trios/L1T1A2.jpg","39","restless",0.5,0.2,0.6,0.013981464463261,"true"
"image-keyboard-response",600,481935,"0.0-3.196-1.196","vdkhe9nakrjyh65",152,"151.csv","","null","resources/maskTrios/BBA2.jpg","null","",NA,NA,NA,NA,""
"image-keyboard-response",601,483157,"0.0-3.196-2.196","vdkhe9nakrjyh65",152,"151.csv","","null","resources/images/coin2.png","null","",NA,NA,NA,NA,""
"image-keyboard-response",602,483657,"0.0-3.197-0.197","vdkhe9nakrjyh65",152,"151.csv","","498.19999998807907","resources/trios/L4T4A3.jpg","39","restless",0.5,0.3,0.6,0.819212000963429,"false"
"image-keyboard-response",603,484068,"0.0-3.197-1.197","vdkhe9nakrjyh65",152,"151.csv","","null","resources/maskTrios/BBA3.jpg","null","",NA,NA,NA,NA,""
"image-keyboard-response",604,485279,"0.0-3.197-2.197","vdkhe9nakrjyh65",152,"151.csv","","null","resources/images/fishbone.png","null","",NA,NA,NA,NA,""
"image-keyboard-response",605,485595,"0.0-3.198-0.198","vdkhe9nakrjyh65",152,"151.csv","","314.79999999701977","resources/trios/L4T4A2.jpg","38","restless",0.5,0.4,0.6,0.129954370385916,"true"
