"trial_type","trial_index","time_elapsed","internal_node_id","subject","participantCode","walkNumber","success","rt","stimulus","key_press","test_part","leftProb","midProb","rightProb","generatedNum","correct"
"pavlovia",0,1185,"0.0-0.0","y7c1rc2ykbhpafj",795,"5.csv","","","","","",NA,NA,NA,NA,""
"fullscreen",1,4280,"0.0-1.0","y7c1rc2ykbhpafj",795,"5.csv","true","","","","",NA,NA,NA,NA,""
"html-keyboard-response",2,11776,"0.0-2.0-0.0","y7c1rc2ykbhpafj",795,"5.csv","","7495.0999999940395","<p><font size='6'>Arrrgh!</p></font><p>Can you be the best pirate? Try to find lots of gold! But beware, some islands have more gold than others, and over time, the island with the most gold may change. Can YOU figure it out? </p><font size='6'>GOOD LUCK, CAPTAIN!!!</font><p>Press any key to begin</p>","75","",NA,NA,NA,NA,""
"image-keyboard-response",3,14784,"0.0-2.0-1.0","y7c1rc2ykbhpafj",795,"5.csv","","null","resources/image_sets/111.png","null","",NA,NA,NA,NA,""
"image-keyboard-response",4,17646,"0.0-2.0-2.0","y7c1rc2ykbhpafj",795,"5.csv","","2860.5","resources/image_sets/left_highlight.png","37","",NA,NA,NA,NA,""
"image-keyboard-response",5,19817,"0.0-2.0-3.0","y7c1rc2ykbhpafj",795,"5.csv","","2168.7999999821186","resources/image_sets/mid_highlight.png","38","",NA,NA,NA,NA,""
"image-keyboard-response",6,20489,"0.0-2.0-4.0","y7c1rc2ykbhpafj",795,"5.csv","","670.2000000178814","resources/image_sets/right_highlight.png","39","",NA,NA,NA,NA,""
"image-keyboard-response",7,22724,"0.0-2.0-5.0","y7c1rc2ykbhpafj",795,"5.csv","","2232.5","resources/image_sets/111.png","13","",NA,NA,NA,NA,""
"image-keyboard-response",8,24665,"0.0-2.0-6.0","y7c1rc2ykbhpafj",795,"5.csv","","1940","resources/images/coin2.png","13","",NA,NA,NA,NA,""
"image-keyboard-response",9,26063,"0.0-2.0-7.0","y7c1rc2ykbhpafj",795,"5.csv","","1395.8999999761581","resources/images/fishbone.png","13","",NA,NA,NA,NA,""
"html-keyboard-response",10,32480,"0.0-2.0-8.0","y7c1rc2ykbhpafj",795,"5.csv","","6417.0999999940395","<p>Your first journey will be a long one, but you will get a well deserved break at the end</p><p>After the break you will have four more journeys, but each will be much shorter than the first, and you will have breaks in between each</p><p>Press Enter to begin</p>","13","",NA,NA,NA,NA,""
"image-keyboard-response",11,34406,"0.0-3.0-0.0","y7c1rc2ykbhpafj",795,"5.csv","","1922.9000000059605","resources/trios/L1T4A3.jpg","38","restless",0.7,0.9,0.3,0.817224592679472,"true"
"image-keyboard-response",12,34819,"0.0-3.0-1.0","y7c1rc2ykbhpafj",795,"5.csv","","null","resources/maskTrios/BT4B.jpg","null","",NA,NA,NA,NA,""
"image-keyboard-response",13,36034,"0.0-3.0-2.0","y7c1rc2ykbhpafj",795,"5.csv","","null","resources/images/coin2.png","null","",NA,NA,NA,NA,""
"image-keyboard-response",14,37306,"0.0-3.1-0.1","y7c1rc2ykbhpafj",795,"5.csv","","1268.7000000178814","resources/trios/L1T4A2.jpg","38","restless",0.7,0.9,0.2,0.214544388078552,"true"
"image-keyboard-response",15,37715,"0.0-3.1-1.1","y7c1rc2ykbhpafj",795,"5.csv","","null","resources/maskTrios/BT4B.jpg","null","",NA,NA,NA,NA,""
"image-keyboard-response",16,38920,"0.0-3.1-2.1","y7c1rc2ykbhpafj",795,"5.csv","","null","resources/images/coin2.png","null","",NA,NA,NA,NA,""
"image-keyboard-response",17,40048,"0.0-3.2-0.2","y7c1rc2ykbhpafj",795,"5.csv","","1125.9000000059605","resources/trios/L1T1A2.jpg","38","restless",0.7,0.8,0.3,0.29363799721813,"true"
"image-keyboard-response",18,40459,"0.0-3.2-1.2","y7c1rc2ykbhpafj",795,"5.csv","","null","resources/maskTrios/BT1B.jpg","null","",NA,NA,NA,NA,""
"image-keyboard-response",19,41663,"0.0-3.2-2.2","y7c1rc2ykbhpafj",795,"5.csv","","null","resources/images/coin2.png","null","",NA,NA,NA,NA,""
"image-keyboard-response",20,42295,"0.0-3.3-0.3","y7c1rc2ykbhpafj",795,"5.csv","","629.4000000059605","resources/trios/L2T4A2.jpg","38","restless",0.8,0.7,0.3,0.865122453695681,"false"
"image-keyboard-response",21,42702,"0.0-3.3-1.3","y7c1rc2ykbhpafj",795,"5.csv","","null","resources/maskTrios/BT4B.jpg","null","",NA,NA,NA,NA,""
"image-keyboard-response",22,43914,"0.0-3.3-2.3","y7c1rc2ykbhpafj",795,"5.csv","","null","resources/images/fishbone.png","null","",NA,NA,NA,NA,""
"image-keyboard-response",23,47077,"0.0-3.4-0.4","y7c1rc2ykbhpafj",795,"5.csv","","3160.600000023842","resources/trios/L1T4A2.jpg","37","restless",0.9,0.7,0.3,0.635682617882016,"true"
"image-keyboard-response",24,47490,"0.0-3.4-1.4","y7c1rc2ykbhpafj",795,"5.csv","","null","resources/maskTrios/L1BB.jpg","null","",NA,NA,NA,NA,""
"image-keyboard-response",25,48694,"0.0-3.4-2.4","y7c1rc2ykbhpafj",795,"5.csv","","null","resources/images/coin2.png","null","",NA,NA,NA,NA,""
"image-keyboard-response",26,50991,"0.0-3.5-0.5","y7c1rc2ykbhpafj",795,"5.csv","","2294.4000000059605","resources/trios/L2T1A3.jpg","38","restless",0.8,0.7,0.3,0.86686845370209,"false"
"image-keyboard-response",27,51402,"0.0-3.5-1.5","y7c1rc2ykbhpafj",795,"5.csv","","null","resources/maskTrios/BT1B.jpg","null","",NA,NA,NA,NA,""
"image-keyboard-response",28,52610,"0.0-3.5-2.5","y7c1rc2ykbhpafj",795,"5.csv","","null","resources/images/fishbone.png","null","",NA,NA,NA,NA,""
"image-keyboard-response",29,53929,"0.0-3.6-0.6","y7c1rc2ykbhpafj",795,"5.csv","","1317.300000011921","resources/trios/L2T1A2.jpg","37","restless",0.8,0.7,0.2,0.316753921238755,"true"
"image-keyboard-response",30,54338,"0.0-3.6-1.6","y7c1rc2ykbhpafj",795,"5.csv","","null","resources/maskTrios/L2BB.jpg","null","",NA,NA,NA,NA,""
"image-keyboard-response",31,55545,"0.0-3.6-2.6","y7c1rc2ykbhpafj",795,"5.csv","","null","resources/images/coin2.png","null","",NA,NA,NA,NA,""
"image-keyboard-response",32,56886,"0.0-3.7-0.7","y7c1rc2ykbhpafj",795,"5.csv","","1340.5","resources/trios/L1T1A2.jpg","38","restless",0.7,0.7,0.2,0.945311521579551,"false"
"image-keyboard-response",33,57294,"0.0-3.7-1.7","y7c1rc2ykbhpafj",795,"5.csv","","null","resources/maskTrios/BT1B.jpg","null","",NA,NA,NA,NA,""
"image-keyboard-response",34,58505,"0.0-3.7-2.7","y7c1rc2ykbhpafj",795,"5.csv","","null","resources/images/fishbone.png","null","",NA,NA,NA,NA,""
"image-keyboard-response",35,59577,"0.0-3.8-0.8","y7c1rc2ykbhpafj",795,"5.csv","","1070.800000011921","resources/trios/L1T4A3.jpg","39","restless",0.7,0.7,0.3,0.708369299490479,"false"
"image-keyboard-response",36,59984,"0.0-3.8-1.8","y7c1rc2ykbhpafj",795,"5.csv","","null","resources/maskTrios/BBA3.jpg","null","",NA,NA,NA,NA,""
"image-keyboard-response",37,61189,"0.0-3.8-2.8","y7c1rc2ykbhpafj",795,"5.csv","","null","resources/images/fishbone.png","null","",NA,NA,NA,NA,""
"image-keyboard-response",38,61627,"0.0-3.9-0.9","y7c1rc2ykbhpafj",795,"5.csv","","435.30000001192093","resources/trios/L2T1A3.jpg","37","restless",0.7,0.7,0.3,0.12422245249209,"true"
"image-keyboard-response",39,62038,"0.0-3.9-1.9","y7c1rc2ykbhpafj",795,"5.csv","","null","resources/maskTrios/L2BB.jpg","null","",NA,NA,NA,NA,""
"image-keyboard-response",40,63249,"0.0-3.9-2.9","y7c1rc2ykbhpafj",795,"5.csv","","null","resources/images/coin2.png","null","",NA,NA,NA,NA,""
"image-keyboard-response",41,65352,"0.0-3.10-0.10","y7c1rc2ykbhpafj",795,"5.csv","","2100.699999988079","resources/trios/L1T4A3.jpg","39","restless",0.7,0.7,0.3,0.784008596674255,"false"
"image-keyboard-response",42,65759,"0.0-3.10-1.10","y7c1rc2ykbhpafj",795,"5.csv","","null","resources/maskTrios/BBA3.jpg","null","",NA,NA,NA,NA,""
"image-keyboard-response",43,66966,"0.0-3.10-2.10","y7c1rc2ykbhpafj",795,"5.csv","","null","resources/images/fishbone.png","null","",NA,NA,NA,NA,""
"image-keyboard-response",44,67317,"0.0-3.11-0.11","y7c1rc2ykbhpafj",795,"5.csv","","349.19999998807907","resources/trios/L2T4A3.jpg","38","restless",0.7,0.8,0.3,0.459986229774833,"true"
"image-keyboard-response",45,67729,"0.0-3.11-1.11","y7c1rc2ykbhpafj",795,"5.csv","","null","resources/maskTrios/BT4B.jpg","null","",NA,NA,NA,NA,""
"image-keyboard-response",46,68937,"0.0-3.11-2.11","y7c1rc2ykbhpafj",795,"5.csv","","null","resources/images/coin2.png","null","",NA,NA,NA,NA,""
"image-keyboard-response",47,70157,"0.0-3.12-0.12","y7c1rc2ykbhpafj",795,"5.csv","","1217.5","resources/trios/L2T1A2.jpg","38","restless",0.7,0.8,0.3,0.59607529885766,"true"
"image-keyboard-response",48,70569,"0.0-3.12-1.12","y7c1rc2ykbhpafj",795,"5.csv","","null","resources/maskTrios/BT1B.jpg","null","",NA,NA,NA,NA,""
"image-keyboard-response",49,71777,"0.0-3.12-2.12","y7c1rc2ykbhpafj",795,"5.csv","","null","resources/images/coin2.png","null","",NA,NA,NA,NA,""
"image-keyboard-response",50,74171,"0.0-3.13-0.13","y7c1rc2ykbhpafj",795,"5.csv","","2392.199999988079","resources/trios/L2T1A3.jpg","38","restless",0.6,0.8,0.3,0.241218138357998,"true"
"image-keyboard-response",51,74583,"0.0-3.13-1.13","y7c1rc2ykbhpafj",795,"5.csv","","null","resources/maskTrios/BT1B.jpg","null","",NA,NA,NA,NA,""
"image-keyboard-response",52,75789,"0.0-3.13-2.13","y7c1rc2ykbhpafj",795,"5.csv","","null","resources/images/coin2.png","null","",NA,NA,NA,NA,""
"image-keyboard-response",53,77462,"0.0-3.14-0.14","y7c1rc2ykbhpafj",795,"5.csv","","1671.0999999940395","resources/trios/L1T4A2.jpg","37","restless",0.6,0.8,0.3,0.204512146981917,"true"
"image-keyboard-response",54,77869,"0.0-3.14-1.14","y7c1rc2ykbhpafj",795,"5.csv","","null","resources/maskTrios/L1BB.jpg","null","",NA,NA,NA,NA,""
"image-keyboard-response",55,79081,"0.0-3.14-2.14","y7c1rc2ykbhpafj",795,"5.csv","","null","resources/images/coin2.png","null","",NA,NA,NA,NA,""
"image-keyboard-response",56,86747,"0.0-3.15-0.15","y7c1rc2ykbhpafj",795,"5.csv","","7664.0999999940395","resources/trios/L1T4A2.jpg","37","restless",0.6,0.8,0.3,0.294882805680974,"true"
"image-keyboard-response",57,87160,"0.0-3.15-1.15","y7c1rc2ykbhpafj",795,"5.csv","","null","resources/maskTrios/L1BB.jpg","null","",NA,NA,NA,NA,""
"image-keyboard-response",58,88364,"0.0-3.15-2.15","y7c1rc2ykbhpafj",795,"5.csv","","null","resources/images/coin2.png","null","",NA,NA,NA,NA,""
"image-keyboard-response",59,89528,"0.0-3.16-0.16","y7c1rc2ykbhpafj",795,"5.csv","","1162","resources/trios/L1T4A3.jpg","37","restless",0.6,0.8,0.3,0.533346399143773,"true"
"image-keyboard-response",60,89936,"0.0-3.16-1.16","y7c1rc2ykbhpafj",795,"5.csv","","null","resources/maskTrios/L1BB.jpg","null","",NA,NA,NA,NA,""
"image-keyboard-response",61,91144,"0.0-3.16-2.16","y7c1rc2ykbhpafj",795,"5.csv","","null","resources/images/coin2.png","null","",NA,NA,NA,NA,""
"image-keyboard-response",62,92085,"0.0-3.17-0.17","y7c1rc2ykbhpafj",795,"5.csv","","938.3999999761581","resources/trios/L1T1A2.jpg","38","restless",0.6,0.8,0.3,0.447940179334019,"true"
"image-keyboard-response",63,92496,"0.0-3.17-1.17","y7c1rc2ykbhpafj",795,"5.csv","","null","resources/maskTrios/BT1B.jpg","null","",NA,NA,NA,NA,""
"image-keyboard-response",64,93704,"0.0-3.17-2.17","y7c1rc2ykbhpafj",795,"5.csv","","null","resources/images/coin2.png","null","",NA,NA,NA,NA,""
"image-keyboard-response",65,94499,"0.0-3.18-0.18","y7c1rc2ykbhpafj",795,"5.csv","","792.8000000119209","resources/trios/L2T4A2.jpg","37","restless",0.6,0.8,0.3,0.543414159942586,"true"
"image-keyboard-response",66,94910,"0.0-3.18-1.18","y7c1rc2ykbhpafj",795,"5.csv","","null","resources/maskTrios/L2BB.jpg","null","",NA,NA,NA,NA,""
"image-keyboard-response",67,96115,"0.0-3.18-2.18","y7c1rc2ykbhpafj",795,"5.csv","","null","resources/images/coin2.png","null","",NA,NA,NA,NA,""
"image-keyboard-response",68,96734,"0.0-3.19-0.19","y7c1rc2ykbhpafj",795,"5.csv","","616","resources/trios/L2T1A2.jpg","38","restless",0.6,0.8,0.2,0.366251140137442,"true"
"image-keyboard-response",69,97144,"0.0-3.19-1.19","y7c1rc2ykbhpafj",795,"5.csv","","null","resources/maskTrios/BT1B.jpg","null","",NA,NA,NA,NA,""
"image-keyboard-response",70,98352,"0.0-3.19-2.19","y7c1rc2ykbhpafj",795,"5.csv","","null","resources/images/coin2.png","null","",NA,NA,NA,NA,""
"image-keyboard-response",71,99009,"0.0-3.20-0.20","y7c1rc2ykbhpafj",795,"5.csv","","654.6999999880791","resources/trios/L2T1A3.jpg","38","restless",0.6,0.8,0.1,0.916444960884913,"false"
"image-keyboard-response",72,99419,"0.0-3.20-1.20","y7c1rc2ykbhpafj",795,"5.csv","","null","resources/maskTrios/BT1B.jpg","null","",NA,NA,NA,NA,""
"image-keyboard-response",73,100628,"0.0-3.20-2.20","y7c1rc2ykbhpafj",795,"5.csv","","null","resources/images/fishbone.png","null","",NA,NA,NA,NA,""
"image-keyboard-response",74,101415,"0.0-3.21-0.21","y7c1rc2ykbhpafj",795,"5.csv","","785.0999999940395","resources/trios/L2T1A2.jpg","37","restless",0.6,0.8,0.1,0.698955262318385,"false"
"image-keyboard-response",75,101824,"0.0-3.21-1.21","y7c1rc2ykbhpafj",795,"5.csv","","null","resources/maskTrios/L2BB.jpg","null","",NA,NA,NA,NA,""
"image-keyboard-response",76,103031,"0.0-3.21-2.21","y7c1rc2ykbhpafj",795,"5.csv","","null","resources/images/fishbone.png","null","",NA,NA,NA,NA,""
"image-keyboard-response",77,103705,"0.0-3.22-0.22","y7c1rc2ykbhpafj",795,"5.csv","","672.3000000119209","resources/trios/L1T4A2.jpg","39","restless",0.6,0.8,0.1,0.961654125729689,"false"
"image-keyboard-response",78,104120,"0.0-3.22-1.22","y7c1rc2ykbhpafj",795,"5.csv","","null","resources/maskTrios/BBA2.jpg","null","",NA,NA,NA,NA,""
"image-keyboard-response",79,105327,"0.0-3.22-2.22","y7c1rc2ykbhpafj",795,"5.csv","","null","resources/images/fishbone.png","null","",NA,NA,NA,NA,""
"image-keyboard-response",80,106070,"0.0-3.23-0.23","y7c1rc2ykbhpafj",795,"5.csv","","740.5999999940395","resources/trios/L2T1A3.jpg","38","restless",0.6,0.8,0.2,0.508981312260914,"true"
"image-keyboard-response",81,106476,"0.0-3.23-1.23","y7c1rc2ykbhpafj",795,"5.csv","","null","resources/maskTrios/BT1B.jpg","null","",NA,NA,NA,NA,""
"image-keyboard-response",82,107686,"0.0-3.23-2.23","y7c1rc2ykbhpafj",795,"5.csv","","null","resources/images/coin2.png","null","",NA,NA,NA,NA,""
"image-keyboard-response",83,114411,"0.0-3.24-0.24","y7c1rc2ykbhpafj",795,"5.csv","","6722.899999976158","resources/trios/L1T4A2.jpg","37","restless",0.6,0.7,0.3,0.545698539183611,"true"
"image-keyboard-response",84,114823,"0.0-3.24-1.24","y7c1rc2ykbhpafj",795,"5.csv","","null","resources/maskTrios/L1BB.jpg","null","",NA,NA,NA,NA,""
"image-keyboard-response",85,116030,"0.0-3.24-2.24","y7c1rc2ykbhpafj",795,"5.csv","","null","resources/images/coin2.png","null","",NA,NA,NA,NA,""
"image-keyboard-response",86,117757,"0.0-3.25-0.25","y7c1rc2ykbhpafj",795,"5.csv","","1724.5","resources/trios/L1T4A3.jpg","37","restless",0.6,0.7,0.3,0.568297511679285,"true"
"image-keyboard-response",87,118162,"0.0-3.25-1.25","y7c1rc2ykbhpafj",795,"5.csv","","null","resources/maskTrios/L1BB.jpg","null","",NA,NA,NA,NA,""
"image-keyboard-response",88,119375,"0.0-3.25-2.25","y7c1rc2ykbhpafj",795,"5.csv","","null","resources/images/coin2.png","null","",NA,NA,NA,NA,""
"image-keyboard-response",89,120640,"0.0-3.26-0.26","y7c1rc2ykbhpafj",795,"5.csv","","1263.0999999940395","resources/trios/L2T4A2.jpg","37","restless",0.6,0.7,0.3,0.369462661018278,"true"
"image-keyboard-response",90,121055,"0.0-3.26-1.26","y7c1rc2ykbhpafj",795,"5.csv","","null","resources/maskTrios/L2BB.jpg","null","",NA,NA,NA,NA,""
"image-keyboard-response",91,122262,"0.0-3.26-2.26","y7c1rc2ykbhpafj",795,"5.csv","","null","resources/images/coin2.png","null","",NA,NA,NA,NA,""
"image-keyboard-response",92,123307,"0.0-3.27-0.27","y7c1rc2ykbhpafj",795,"5.csv","","1042.300000011921","resources/trios/L2T1A3.jpg","38","restless",0.6,0.7,0.3,0.848146477294783,"false"
"image-keyboard-response",93,123715,"0.0-3.27-1.27","y7c1rc2ykbhpafj",795,"5.csv","","null","resources/maskTrios/BT1B.jpg","null","",NA,NA,NA,NA,""
"image-keyboard-response",94,124922,"0.0-3.27-2.27","y7c1rc2ykbhpafj",795,"5.csv","","null","resources/images/fishbone.png","null","",NA,NA,NA,NA,""
"image-keyboard-response",95,125985,"0.0-3.28-0.28","y7c1rc2ykbhpafj",795,"5.csv","","1060.8999999761581","resources/trios/L1T4A3.jpg","37","restless",0.7,0.7,0.3,0.474796017305825,"true"
"image-keyboard-response",96,126398,"0.0-3.28-1.28","y7c1rc2ykbhpafj",795,"5.csv","","null","resources/maskTrios/L1BB.jpg","null","",NA,NA,NA,NA,""
"image-keyboard-response",97,127605,"0.0-3.28-2.28","y7c1rc2ykbhpafj",795,"5.csv","","null","resources/images/coin2.png","null","",NA,NA,NA,NA,""
"image-keyboard-response",98,128232,"0.0-3.29-0.29","y7c1rc2ykbhpafj",795,"5.csv","","625.6999999880791","resources/trios/L2T1A2.jpg","38","restless",0.7,0.7,0.3,0.934702325871621,"false"
"image-keyboard-response",99,128645,"0.0-3.29-1.29","y7c1rc2ykbhpafj",795,"5.csv","","null","resources/maskTrios/BT1B.jpg","null","",NA,NA,NA,NA,""
"image-keyboard-response",100,129850,"0.0-3.29-2.29","y7c1rc2ykbhpafj",795,"5.csv","","null","resources/images/fishbone.png","null","",NA,NA,NA,NA,""
"image-keyboard-response",101,130376,"0.0-3.30-0.30","y7c1rc2ykbhpafj",795,"5.csv","","523.8000000119209","resources/trios/L2T4A2.jpg","37","restless",0.7,0.6,0.2,0.592452387374272,"true"
"image-keyboard-response",102,130786,"0.0-3.30-1.30","y7c1rc2ykbhpafj",795,"5.csv","","null","resources/maskTrios/L2BB.jpg","null","",NA,NA,NA,NA,""
"image-keyboard-response",103,131998,"0.0-3.30-2.30","y7c1rc2ykbhpafj",795,"5.csv","","null","resources/images/coin2.png","null","",NA,NA,NA,NA,""
"image-keyboard-response",104,139756,"0.0-3.31-0.31","y7c1rc2ykbhpafj",795,"5.csv","","7756.5","resources/trios/L2T1A3.jpg","38","restless",0.7,0.6,0.2,0.820617030612831,"false"
"image-keyboard-response",105,140162,"0.0-3.31-1.31","y7c1rc2ykbhpafj",795,"5.csv","","null","resources/maskTrios/BT1B.jpg","null","",NA,NA,NA,NA,""
"image-keyboard-response",106,141373,"0.0-3.31-2.31","y7c1rc2ykbhpafj",795,"5.csv","","null","resources/images/fishbone.png","null","",NA,NA,NA,NA,""
"image-keyboard-response",107,142095,"0.0-3.32-0.32","y7c1rc2ykbhpafj",795,"5.csv","","720.0999999940395","resources/trios/L1T4A3.jpg","37","restless",0.7,0.6,0.2,0.175835010046059,"true"
"image-keyboard-response",108,142510,"0.0-3.32-1.32","y7c1rc2ykbhpafj",795,"5.csv","","null","resources/maskTrios/L1BB.jpg","null","",NA,NA,NA,NA,""
"image-keyboard-response",109,143718,"0.0-3.32-2.32","y7c1rc2ykbhpafj",795,"5.csv","","null","resources/images/coin2.png","null","",NA,NA,NA,NA,""
"image-keyboard-response",110,145807,"0.0-3.33-0.33","y7c1rc2ykbhpafj",795,"5.csv","","2086.5999999940395","resources/trios/L2T1A3.jpg","38","restless",0.7,0.6,0.2,0.448749612581521,"true"
"image-keyboard-response",111,146220,"0.0-3.33-1.33","y7c1rc2ykbhpafj",795,"5.csv","","null","resources/maskTrios/BT1B.jpg","null","",NA,NA,NA,NA,""
"image-keyboard-response",112,147429,"0.0-3.33-2.33","y7c1rc2ykbhpafj",795,"5.csv","","null","resources/images/coin2.png","null","",NA,NA,NA,NA,""
"image-keyboard-response",113,148175,"0.0-3.34-0.34","y7c1rc2ykbhpafj",795,"5.csv","","743.6999999880791","resources/trios/L2T1A2.jpg","38","restless",0.7,0.6,0.2,0.474035494996171,"true"
"image-keyboard-response",114,148585,"0.0-3.34-1.34","y7c1rc2ykbhpafj",795,"5.csv","","null","resources/maskTrios/BT1B.jpg","null","",NA,NA,NA,NA,""
"image-keyboard-response",115,149793,"0.0-3.34-2.34","y7c1rc2ykbhpafj",795,"5.csv","","null","resources/images/coin2.png","null","",NA,NA,NA,NA,""
"image-keyboard-response",116,150317,"0.0-3.35-0.35","y7c1rc2ykbhpafj",795,"5.csv","","521.6999999880791","resources/trios/L2T1A2.jpg","38","restless",0.7,0.6,0.2,0.616236573931979,"false"
"image-keyboard-response",117,150725,"0.0-3.35-1.35","y7c1rc2ykbhpafj",795,"5.csv","","null","resources/maskTrios/BT1B.jpg","null","",NA,NA,NA,NA,""
"image-keyboard-response",118,151933,"0.0-3.35-2.35","y7c1rc2ykbhpafj",795,"5.csv","","null","resources/images/fishbone.png","null","",NA,NA,NA,NA,""
"image-keyboard-response",119,152634,"0.0-3.36-0.36","y7c1rc2ykbhpafj",795,"5.csv","","700.2000000178814","resources/trios/L2T1A2.jpg","38","restless",0.7,0.6,0.2,0.88897294909802,"false"
"image-keyboard-response",120,153045,"0.0-3.36-1.36","y7c1rc2ykbhpafj",795,"5.csv","","null","resources/maskTrios/BT1B.jpg","null","",NA,NA,NA,NA,""
"image-keyboard-response",121,154253,"0.0-3.36-2.36","y7c1rc2ykbhpafj",795,"5.csv","","null","resources/images/fishbone.png","null","",NA,NA,NA,NA,""
"image-keyboard-response",122,155058,"0.0-3.37-0.37","y7c1rc2ykbhpafj",795,"5.csv","","803.4000000059605","resources/trios/L1T1A2.jpg","38","restless",0.7,0.5,0.3,0.63915099570529,"false"
"image-keyboard-response",123,155469,"0.0-3.37-1.37","y7c1rc2ykbhpafj",795,"5.csv","","null","resources/maskTrios/BT1B.jpg","null","",NA,NA,NA,NA,""
"image-keyboard-response",124,156672,"0.0-3.37-2.37","y7c1rc2ykbhpafj",795,"5.csv","","null","resources/images/fishbone.png","null","",NA,NA,NA,NA,""
"image-keyboard-response",125,157224,"0.0-3.38-0.38","y7c1rc2ykbhpafj",795,"5.csv","","549.1999999880791","resources/trios/L1T1A2.jpg","37","restless",0.7,0.5,0.3,0.630746532077429,"true"
"image-keyboard-response",126,157635,"0.0-3.38-1.38","y7c1rc2ykbhpafj",795,"5.csv","","null","resources/maskTrios/L1BB.jpg","null","",NA,NA,NA,NA,""
"image-keyboard-response",127,158845,"0.0-3.38-2.38","y7c1rc2ykbhpafj",795,"5.csv","","null","resources/images/coin2.png","null","",NA,NA,NA,NA,""
"image-keyboard-response",128,159926,"0.0-3.39-0.39","y7c1rc2ykbhpafj",795,"5.csv","","1078.8999999761581","resources/trios/L2T1A2.jpg","37","restless",0.7,0.4,0.3,0.884044484340988,"false"
"image-keyboard-response",129,160336,"0.0-3.39-1.39","y7c1rc2ykbhpafj",795,"5.csv","","null","resources/maskTrios/L2BB.jpg","null","",NA,NA,NA,NA,""
"image-keyboard-response",130,161549,"0.0-3.39-2.39","y7c1rc2ykbhpafj",795,"5.csv","","null","resources/images/fishbone.png","null","",NA,NA,NA,NA,""
"image-keyboard-response",131,161905,"0.0-3.40-0.40","y7c1rc2ykbhpafj",795,"5.csv","","354.39999997615814","resources/trios/L1T1A2.jpg","38","restless",0.7,0.4,0.4,0.291100483160367,"true"
"image-keyboard-response",132,162317,"0.0-3.40-1.40","y7c1rc2ykbhpafj",795,"5.csv","","null","resources/maskTrios/BT1B.jpg","null","",NA,NA,NA,NA,""
"image-keyboard-response",133,163525,"0.0-3.40-2.40","y7c1rc2ykbhpafj",795,"5.csv","","null","resources/images/coin2.png","null","",NA,NA,NA,NA,""
"image-keyboard-response",134,164521,"0.0-3.41-0.41","y7c1rc2ykbhpafj",795,"5.csv","","994.0999999940395","resources/trios/L2T1A2.jpg","38","restless",0.7,0.4,0.4,0.523785253292204,"false"
"image-keyboard-response",135,164929,"0.0-3.41-1.41","y7c1rc2ykbhpafj",795,"5.csv","","null","resources/maskTrios/BT1B.jpg","null","",NA,NA,NA,NA,""
"image-keyboard-response",136,166136,"0.0-3.41-2.41","y7c1rc2ykbhpafj",795,"5.csv","","null","resources/images/fishbone.png","null","",NA,NA,NA,NA,""
"image-keyboard-response",137,166667,"0.0-3.42-0.42","y7c1rc2ykbhpafj",795,"5.csv","","528.2000000178814","resources/trios/L1T4A2.jpg","37","restless",0.7,0.4,0.5,0.935230886351464,"false"
"image-keyboard-response",138,167073,"0.0-3.42-1.42","y7c1rc2ykbhpafj",795,"5.csv","","null","resources/maskTrios/L1BB.jpg","null","",NA,NA,NA,NA,""
"image-keyboard-response",139,168284,"0.0-3.42-2.42","y7c1rc2ykbhpafj",795,"5.csv","","null","resources/images/fishbone.png","null","",NA,NA,NA,NA,""
"image-keyboard-response",140,168615,"0.0-3.43-0.43","y7c1rc2ykbhpafj",795,"5.csv","","328.09999999403954","resources/trios/L1T1A3.jpg","38","restless",0.8,0.4,0.5,0.457140896439351,"false"
"image-keyboard-response",141,169024,"0.0-3.43-1.43","y7c1rc2ykbhpafj",795,"5.csv","","null","resources/maskTrios/BT1B.jpg","null","",NA,NA,NA,NA,""
"image-keyboard-response",142,170234,"0.0-3.43-2.43","y7c1rc2ykbhpafj",795,"5.csv","","null","resources/images/fishbone.png","null","",NA,NA,NA,NA,""
"image-keyboard-response",143,171286,"0.0-3.44-0.44","y7c1rc2ykbhpafj",795,"5.csv","","1049.800000011921","resources/trios/L2T1A2.jpg","38","restless",0.8,0.4,0.5,0.423192845384053,"false"
"image-keyboard-response",144,171700,"0.0-3.44-1.44","y7c1rc2ykbhpafj",795,"5.csv","","null","resources/maskTrios/BT1B.jpg","null","",NA,NA,NA,NA,""
"image-keyboard-response",145,172904,"0.0-3.44-2.44","y7c1rc2ykbhpafj",795,"5.csv","","null","resources/images/fishbone.png","null","",NA,NA,NA,NA,""
"image-keyboard-response",146,173552,"0.0-3.45-0.45","y7c1rc2ykbhpafj",795,"5.csv","","645.9000000059605","resources/trios/L2T4A3.jpg","37","restless",0.8,0.3,0.5,0.283486692054403,"true"
"image-keyboard-response",147,173960,"0.0-3.45-1.45","y7c1rc2ykbhpafj",795,"5.csv","","null","resources/maskTrios/L2BB.jpg","null","",NA,NA,NA,NA,""
"image-keyboard-response",148,175171,"0.0-3.45-2.45","y7c1rc2ykbhpafj",795,"5.csv","","null","resources/images/coin2.png","null","",NA,NA,NA,NA,""
"image-keyboard-response",149,176171,"0.0-3.46-0.46","y7c1rc2ykbhpafj",795,"5.csv","","998.4000000059605","resources/trios/L2T4A2.jpg","37","restless",0.8,0.2,0.5,0.792475120590708,"true"
"image-keyboard-response",150,176575,"0.0-3.46-1.46","y7c1rc2ykbhpafj",795,"5.csv","","null","resources/maskTrios/L2BB.jpg","null","",NA,NA,NA,NA,""
"image-keyboard-response",151,177783,"0.0-3.46-2.46","y7c1rc2ykbhpafj",795,"5.csv","","null","resources/images/coin2.png","null","",NA,NA,NA,NA,""
"image-keyboard-response",152,178399,"0.0-3.47-0.47","y7c1rc2ykbhpafj",795,"5.csv","","614.0999999940395","resources/trios/L2T4A2.jpg","37","restless",0.7,0.2,0.5,0.0453529858678734,"true"
"image-keyboard-response",153,178807,"0.0-3.47-1.47","y7c1rc2ykbhpafj",795,"5.csv","","null","resources/maskTrios/L2BB.jpg","null","",NA,NA,NA,NA,""
"image-keyboard-response",154,180020,"0.0-3.47-2.47","y7c1rc2ykbhpafj",795,"5.csv","","null","resources/images/coin2.png","null","",NA,NA,NA,NA,""
"image-keyboard-response",155,183221,"0.0-3.48-0.48","y7c1rc2ykbhpafj",795,"5.csv","","3199.2999999821186","resources/trios/L1T4A3.jpg","37","restless",0.7,0.2,0.5,0.919587965281144,"false"
"image-keyboard-response",156,183634,"0.0-3.48-1.48","y7c1rc2ykbhpafj",795,"5.csv","","null","resources/maskTrios/L1BB.jpg","null","",NA,NA,NA,NA,""
"image-keyboard-response",157,184844,"0.0-3.48-2.48","y7c1rc2ykbhpafj",795,"5.csv","","null","resources/images/fishbone.png","null","",NA,NA,NA,NA,""
"image-keyboard-response",158,185817,"0.0-3.49-0.49","y7c1rc2ykbhpafj",795,"5.csv","","971.6999999880791","resources/trios/L2T4A2.jpg","39","restless",0.7,0.2,0.5,0.63178014193937,"false"
"image-keyboard-response",159,186223,"0.0-3.49-1.49","y7c1rc2ykbhpafj",795,"5.csv","","null","resources/maskTrios/BBA2.jpg","null","",NA,NA,NA,NA,""
"image-keyboard-response",160,187433,"0.0-3.49-2.49","y7c1rc2ykbhpafj",795,"5.csv","","null","resources/images/fishbone.png","null","",NA,NA,NA,NA,""
"image-keyboard-response",161,188091,"0.0-3.50-0.50","y7c1rc2ykbhpafj",795,"5.csv","","655.6999999880791","resources/trios/L1T4A3.jpg","37","restless",0.7,0.2,0.5,0.816002901082229,"false"
"image-keyboard-response",162,188498,"0.0-3.50-1.50","y7c1rc2ykbhpafj",795,"5.csv","","null","resources/maskTrios/L1BB.jpg","null","",NA,NA,NA,NA,""
"image-keyboard-response",163,189707,"0.0-3.50-2.50","y7c1rc2ykbhpafj",795,"5.csv","","null","resources/images/fishbone.png","null","",NA,NA,NA,NA,""
"image-keyboard-response",164,190328,"0.0-3.51-0.51","y7c1rc2ykbhpafj",795,"5.csv","","618.6999999880791","resources/trios/L1T1A2.jpg","38","restless",0.7,0.2,0.5,0.270938864926093,"false"
"image-keyboard-response",165,190738,"0.0-3.51-1.51","y7c1rc2ykbhpafj",795,"5.csv","","null","resources/maskTrios/BT1B.jpg","null","",NA,NA,NA,NA,""
"image-keyboard-response",166,191943,"0.0-3.51-2.51","y7c1rc2ykbhpafj",795,"5.csv","","null","resources/images/fishbone.png","null","",NA,NA,NA,NA,""
"image-keyboard-response",167,192833,"0.0-3.52-0.52","y7c1rc2ykbhpafj",795,"5.csv","","887.8000000119209","resources/trios/L1T1A2.jpg","38","restless",0.7,0.2,0.5,0.769691037661691,"false"
"image-keyboard-response",168,193243,"0.0-3.52-1.52","y7c1rc2ykbhpafj",795,"5.csv","","null","resources/maskTrios/BT1B.jpg","null","",NA,NA,NA,NA,""
"image-keyboard-response",169,194447,"0.0-3.52-2.52","y7c1rc2ykbhpafj",795,"5.csv","","null","resources/images/fishbone.png","null","",NA,NA,NA,NA,""
"image-keyboard-response",170,194704,"0.0-3.53-0.53","y7c1rc2ykbhpafj",795,"5.csv","","254.90000000596046","resources/trios/L2T1A2.jpg","37","restless",0.7,0.2,0.5,0.550261102193124,"true"
"image-keyboard-response",171,195111,"0.0-3.53-1.53","y7c1rc2ykbhpafj",795,"5.csv","","null","resources/maskTrios/L2BB.jpg","null","",NA,NA,NA,NA,""
"image-keyboard-response",172,196319,"0.0-3.53-2.53","y7c1rc2ykbhpafj",795,"5.csv","","null","resources/images/coin2.png","null","",NA,NA,NA,NA,""
"image-keyboard-response",173,197470,"0.0-3.54-0.54","y7c1rc2ykbhpafj",795,"5.csv","","1148.9000000059605","resources/trios/L1T4A3.jpg","37","restless",0.7,0.2,0.5,0.112550801085012,"true"
"image-keyboard-response",174,197883,"0.0-3.54-1.54","y7c1rc2ykbhpafj",795,"5.csv","","null","resources/maskTrios/L1BB.jpg","null","",NA,NA,NA,NA,""
"image-keyboard-response",175,199091,"0.0-3.54-2.54","y7c1rc2ykbhpafj",795,"5.csv","","null","resources/images/coin2.png","null","",NA,NA,NA,NA,""
"image-keyboard-response",176,199723,"0.0-3.55-0.55","y7c1rc2ykbhpafj",795,"5.csv","","629.5","resources/trios/L1T1A2.jpg","38","restless",0.7,0.2,0.5,0.270628832823814,"false"
"image-keyboard-response",177,200130,"0.0-3.55-1.55","y7c1rc2ykbhpafj",795,"5.csv","","null","resources/maskTrios/BT1B.jpg","null","",NA,NA,NA,NA,""
"image-keyboard-response",178,201339,"0.0-3.55-2.55","y7c1rc2ykbhpafj",795,"5.csv","","null","resources/images/fishbone.png","null","",NA,NA,NA,NA,""
"image-keyboard-response",179,201751,"0.0-3.56-0.56","y7c1rc2ykbhpafj",795,"5.csv","","409.59999999403954","resources/trios/L1T1A3.jpg","37","restless",0.7,0.2,0.5,0.167839437268299,"true"
"image-keyboard-response",180,202163,"0.0-3.56-1.56","y7c1rc2ykbhpafj",795,"5.csv","","null","resources/maskTrios/L1BB.jpg","null","",NA,NA,NA,NA,""
"image-keyboard-response",181,203369,"0.0-3.56-2.56","y7c1rc2ykbhpafj",795,"5.csv","","null","resources/images/coin2.png","null","",NA,NA,NA,NA,""
"image-keyboard-response",182,203897,"0.0-3.57-0.57","y7c1rc2ykbhpafj",795,"5.csv","","526.5","resources/trios/L1T1A2.jpg","37","restless",0.6,0.2,0.5,0.83407861265689,"false"
"image-keyboard-response",183,204307,"0.0-3.57-1.57","y7c1rc2ykbhpafj",795,"5.csv","","null","resources/maskTrios/L1BB.jpg","null","",NA,NA,NA,NA,""
"image-keyboard-response",184,205515,"0.0-3.57-2.57","y7c1rc2ykbhpafj",795,"5.csv","","null","resources/images/fishbone.png","null","",NA,NA,NA,NA,""
"image-keyboard-response",185,205970,"0.0-3.58-0.58","y7c1rc2ykbhpafj",795,"5.csv","","453.69999998807907","resources/trios/L2T1A2.jpg","38","restless",0.6,0.2,0.5,0.664136112914696,"false"
"image-keyboard-response",186,206375,"0.0-3.58-1.58","y7c1rc2ykbhpafj",795,"5.csv","","null","resources/maskTrios/BT1B.jpg","null","",NA,NA,NA,NA,""
"image-keyboard-response",187,207582,"0.0-3.58-2.58","y7c1rc2ykbhpafj",795,"5.csv","","null","resources/images/fishbone.png","null","",NA,NA,NA,NA,""
"image-keyboard-response",188,208467,"0.0-3.59-0.59","y7c1rc2ykbhpafj",795,"5.csv","","883.0999999940395","resources/trios/L1T1A2.jpg","38","restless",0.6,0.2,0.5,0.903999345792705,"false"
"image-keyboard-response",189,208882,"0.0-3.59-1.59","y7c1rc2ykbhpafj",795,"5.csv","","null","resources/maskTrios/BT1B.jpg","null","",NA,NA,NA,NA,""
"image-keyboard-response",190,210090,"0.0-3.59-2.59","y7c1rc2ykbhpafj",795,"5.csv","","null","resources/images/fishbone.png","null","",NA,NA,NA,NA,""
"image-keyboard-response",191,210784,"0.0-3.60-0.60","y7c1rc2ykbhpafj",795,"5.csv","","692.2999999821186","resources/trios/L2T1A3.jpg","37","restless",0.6,0.2,0.5,0.0910072482927964,"true"
"image-keyboard-response",192,211194,"0.0-3.60-1.60","y7c1rc2ykbhpafj",795,"5.csv","","null","resources/maskTrios/L2BB.jpg","null","",NA,NA,NA,NA,""
"image-keyboard-response",193,212402,"0.0-3.60-2.60","y7c1rc2ykbhpafj",795,"5.csv","","null","resources/images/coin2.png","null","",NA,NA,NA,NA,""
"image-keyboard-response",194,213084,"0.0-3.61-0.61","y7c1rc2ykbhpafj",795,"5.csv","","680.5999999940395","resources/trios/L1T4A2.jpg","38","restless",0.6,0.2,0.5,0.748906085601356,"false"
"image-keyboard-response",195,213497,"0.0-3.61-1.61","y7c1rc2ykbhpafj",795,"5.csv","","null","resources/maskTrios/BT4B.jpg","null","",NA,NA,NA,NA,""
"image-keyboard-response",196,214706,"0.0-3.61-2.61","y7c1rc2ykbhpafj",795,"5.csv","","null","resources/images/fishbone.png","null","",NA,NA,NA,NA,""
"image-keyboard-response",197,215420,"0.0-3.62-0.62","y7c1rc2ykbhpafj",795,"5.csv","","712.1999999880791","resources/trios/L2T4A3.jpg","37","restless",0.6,0.2,0.5,0.412167234138868,"true"
"image-keyboard-response",198,215832,"0.0-3.62-1.62","y7c1rc2ykbhpafj",795,"5.csv","","null","resources/maskTrios/L2BB.jpg","null","",NA,NA,NA,NA,""
"image-keyboard-response",199,217041,"0.0-3.62-2.62","y7c1rc2ykbhpafj",795,"5.csv","","null","resources/images/coin2.png","null","",NA,NA,NA,NA,""
"image-keyboard-response",200,217589,"0.0-3.63-0.63","y7c1rc2ykbhpafj",795,"5.csv","","546.1999999880791","resources/trios/L2T4A2.jpg","37","restless",0.6,0.2,0.6,0.29532855896286,"true"
"image-keyboard-response",201,218002,"0.0-3.63-1.63","y7c1rc2ykbhpafj",795,"5.csv","","null","resources/maskTrios/L2BB.jpg","null","",NA,NA,NA,NA,""
"image-keyboard-response",202,219206,"0.0-3.63-2.63","y7c1rc2ykbhpafj",795,"5.csv","","null","resources/images/coin2.png","null","",NA,NA,NA,NA,""
"image-keyboard-response",203,219699,"0.0-3.64-0.64","y7c1rc2ykbhpafj",795,"5.csv","","491.7999999821186","resources/trios/L1T4A2.jpg","37","restless",0.6,0.2,0.6,0.263380665129565,"true"
"image-keyboard-response",204,220112,"0.0-3.64-1.64","y7c1rc2ykbhpafj",795,"5.csv","","null","resources/maskTrios/L1BB.jpg","null","",NA,NA,NA,NA,""
"image-keyboard-response",205,221322,"0.0-3.64-2.64","y7c1rc2ykbhpafj",795,"5.csv","","null","resources/images/coin2.png","null","",NA,NA,NA,NA,""
"image-keyboard-response",206,223248,"0.0-3.65-0.65","y7c1rc2ykbhpafj",795,"5.csv","","1924.0999999940395","resources/trios/L2T1A2.jpg","37","restless",0.6,0.2,0.6,0.507340337021596,"true"
"image-keyboard-response",207,223658,"0.0-3.65-1.65","y7c1rc2ykbhpafj",795,"5.csv","","null","resources/maskTrios/L2BB.jpg","null","",NA,NA,NA,NA,""
"image-keyboard-response",208,224866,"0.0-3.65-2.65","y7c1rc2ykbhpafj",795,"5.csv","","null","resources/images/coin2.png","null","",NA,NA,NA,NA,""
"image-keyboard-response",209,225458,"0.0-3.66-0.66","y7c1rc2ykbhpafj",795,"5.csv","","590","resources/trios/L2T4A3.jpg","37","restless",0.6,0.2,0.6,0.482586554096672,"true"
"image-keyboard-response",210,225862,"0.0-3.66-1.66","y7c1rc2ykbhpafj",795,"5.csv","","null","resources/maskTrios/L2BB.jpg","null","",NA,NA,NA,NA,""
"image-keyboard-response",211,227074,"0.0-3.66-2.66","y7c1rc2ykbhpafj",795,"5.csv","","null","resources/images/coin2.png","null","",NA,NA,NA,NA,""
"image-keyboard-response",212,228102,"0.0-3.67-0.67","y7c1rc2ykbhpafj",795,"5.csv","","1026.4000000059605","resources/trios/L1T1A3.jpg","38","restless",0.6,0.2,0.6,0.84573327899005,"false"
"image-keyboard-response",213,228513,"0.0-3.67-1.67","y7c1rc2ykbhpafj",795,"5.csv","","null","resources/maskTrios/BT1B.jpg","null","",NA,NA,NA,NA,""
"image-keyboard-response",214,229720,"0.0-3.67-2.67","y7c1rc2ykbhpafj",795,"5.csv","","null","resources/images/fishbone.png","null","",NA,NA,NA,NA,""
"image-keyboard-response",215,230258,"0.0-3.68-0.68","y7c1rc2ykbhpafj",795,"5.csv","","535.8000000119209","resources/trios/L1T4A3.jpg","37","restless",0.6,0.2,0.6,0.261046599301899,"true"
"image-keyboard-response",216,230665,"0.0-3.68-1.68","y7c1rc2ykbhpafj",795,"5.csv","","null","resources/maskTrios/L1BB.jpg","null","",NA,NA,NA,NA,""
"image-keyboard-response",217,231872,"0.0-3.68-2.68","y7c1rc2ykbhpafj",795,"5.csv","","null","resources/images/coin2.png","null","",NA,NA,NA,NA,""
"image-keyboard-response",218,232642,"0.0-3.69-0.69","y7c1rc2ykbhpafj",795,"5.csv","","768.8000000119209","resources/trios/L2T4A3.jpg","37","restless",0.6,0.2,0.6,0.0779374635060104,"true"
"image-keyboard-response",219,233057,"0.0-3.69-1.69","y7c1rc2ykbhpafj",795,"5.csv","","null","resources/maskTrios/L2BB.jpg","null","",NA,NA,NA,NA,""
"image-keyboard-response",220,234265,"0.0-3.69-2.69","y7c1rc2ykbhpafj",795,"5.csv","","null","resources/images/coin2.png","null","",NA,NA,NA,NA,""
"image-keyboard-response",221,235242,"0.0-3.70-0.70","y7c1rc2ykbhpafj",795,"5.csv","","974.9000000059605","resources/trios/L1T4A3.jpg","38","restless",0.6,0.3,0.6,0.514071886445133,"false"
"image-keyboard-response",222,235646,"0.0-3.70-1.70","y7c1rc2ykbhpafj",795,"5.csv","","null","resources/maskTrios/BT4B.jpg","null","",NA,NA,NA,NA,""
"image-keyboard-response",223,236853,"0.0-3.70-2.70","y7c1rc2ykbhpafj",795,"5.csv","","null","resources/images/fishbone.png","null","",NA,NA,NA,NA,""
"image-keyboard-response",224,237317,"0.0-3.71-0.71","y7c1rc2ykbhpafj",795,"5.csv","","462","resources/trios/L1T4A3.jpg","37","restless",0.6,0.3,0.6,0.332645753064602,"true"
"image-keyboard-response",225,237727,"0.0-3.71-1.71","y7c1rc2ykbhpafj",795,"5.csv","","null","resources/maskTrios/L1BB.jpg","null","",NA,NA,NA,NA,""
"image-keyboard-response",226,238933,"0.0-3.71-2.71","y7c1rc2ykbhpafj",795,"5.csv","","null","resources/images/coin2.png","null","",NA,NA,NA,NA,""
"image-keyboard-response",227,239189,"0.0-3.72-0.72","y7c1rc2ykbhpafj",795,"5.csv","","253.7999999821186","resources/trios/L2T4A3.jpg","37","restless",0.6,0.3,0.6,0.908979561032707,"false"
"image-keyboard-response",228,239597,"0.0-3.72-1.72","y7c1rc2ykbhpafj",795,"5.csv","","null","resources/maskTrios/L2BB.jpg","null","",NA,NA,NA,NA,""
"image-keyboard-response",229,240809,"0.0-3.72-2.72","y7c1rc2ykbhpafj",795,"5.csv","","null","resources/images/fishbone.png","null","",NA,NA,NA,NA,""
"image-keyboard-response",230,242052,"0.0-3.73-0.73","y7c1rc2ykbhpafj",795,"5.csv","","1241","resources/trios/L1T4A2.jpg","38","restless",0.6,0.4,0.6,0.892381935351611,"false"
"image-keyboard-response",231,242465,"0.0-3.73-1.73","y7c1rc2ykbhpafj",795,"5.csv","","null","resources/maskTrios/BT4B.jpg","null","",NA,NA,NA,NA,""
"image-keyboard-response",232,243673,"0.0-3.73-2.73","y7c1rc2ykbhpafj",795,"5.csv","","null","resources/images/fishbone.png","null","",NA,NA,NA,NA,""
"image-keyboard-response",233,244273,"0.0-3.74-0.74","y7c1rc2ykbhpafj",795,"5.csv","","598.0999999940395","resources/trios/L1T4A3.jpg","37","restless",0.6,0.4,0.6,0.70996287588631,"false"
"image-keyboard-response",234,244680,"0.0-3.74-1.74","y7c1rc2ykbhpafj",795,"5.csv","","null","resources/maskTrios/L1BB.jpg","null","",NA,NA,NA,NA,""
"image-keyboard-response",235,245889,"0.0-3.74-2.74","y7c1rc2ykbhpafj",795,"5.csv","","null","resources/images/fishbone.png","null","",NA,NA,NA,NA,""
"image-keyboard-response",236,247228,"0.0-3.75-0.75","y7c1rc2ykbhpafj",795,"5.csv","","1337.0999999940395","resources/trios/L2T1A3.jpg","38","restless",0.6,0.4,0.6,0.225588122217643,"true"
"image-keyboard-response",237,247638,"0.0-3.75-1.75","y7c1rc2ykbhpafj",795,"5.csv","","null","resources/maskTrios/BT1B.jpg","null","",NA,NA,NA,NA,""
"image-keyboard-response",238,248849,"0.0-3.75-2.75","y7c1rc2ykbhpafj",795,"5.csv","","null","resources/images/coin2.png","null","",NA,NA,NA,NA,""
"image-keyboard-response",239,249811,"0.0-3.76-0.76","y7c1rc2ykbhpafj",795,"5.csv","","959.9000000059605","resources/trios/L2T4A3.jpg","37","restless",0.6,0.4,0.6,0.629635942296231,"false"
"image-keyboard-response",240,250224,"0.0-3.76-1.76","y7c1rc2ykbhpafj",795,"5.csv","","null","resources/maskTrios/L2BB.jpg","null","",NA,NA,NA,NA,""
"image-keyboard-response",241,251430,"0.0-3.76-2.76","y7c1rc2ykbhpafj",795,"5.csv","","null","resources/images/fishbone.png","null","",NA,NA,NA,NA,""
"image-keyboard-response",242,252201,"0.0-3.77-0.77","y7c1rc2ykbhpafj",795,"5.csv","","768.6999999880791","resources/trios/L1T1A2.jpg","38","restless",0.6,0.4,0.6,0.965088384603655,"false"
"image-keyboard-response",243,252616,"0.0-3.77-1.77","y7c1rc2ykbhpafj",795,"5.csv","","null","resources/maskTrios/BT1B.jpg","null","",NA,NA,NA,NA,""
"image-keyboard-response",244,253824,"0.0-3.77-2.77","y7c1rc2ykbhpafj",795,"5.csv","","null","resources/images/fishbone.png","null","",NA,NA,NA,NA,""
"image-keyboard-response",245,254509,"0.0-3.78-0.78","y7c1rc2ykbhpafj",795,"5.csv","","681.9000000059605","resources/trios/L2T4A3.jpg","37","restless",0.6,0.4,0.6,0.0440837671946896,"true"
"image-keyboard-response",246,254916,"0.0-3.78-1.78","y7c1rc2ykbhpafj",795,"5.csv","","null","resources/maskTrios/L2BB.jpg","null","",NA,NA,NA,NA,""
"image-keyboard-response",247,256128,"0.0-3.78-2.78","y7c1rc2ykbhpafj",795,"5.csv","","null","resources/images/coin2.png","null","",NA,NA,NA,NA,""
"image-keyboard-response",248,257041,"0.0-3.79-0.79","y7c1rc2ykbhpafj",795,"5.csv","","910.1999999880791","resources/trios/L2T4A2.jpg","37","restless",0.6,0.4,0.6,0.579471487625588,"true"
"image-keyboard-response",249,257448,"0.0-3.79-1.79","y7c1rc2ykbhpafj",795,"5.csv","","null","resources/maskTrios/L2BB.jpg","null","",NA,NA,NA,NA,""
"image-keyboard-response",250,258655,"0.0-3.79-2.79","y7c1rc2ykbhpafj",795,"5.csv","","null","resources/images/coin2.png","null","",NA,NA,NA,NA,""
"image-keyboard-response",251,260169,"0.0-3.80-0.80","y7c1rc2ykbhpafj",795,"5.csv","","1512","resources/trios/L1T1A3.jpg","38","restless",0.6,0.4,0.6,0.997947231488055,"false"
"image-keyboard-response",252,260580,"0.0-3.80-1.80","y7c1rc2ykbhpafj",795,"5.csv","","null","resources/maskTrios/BT1B.jpg","null","",NA,NA,NA,NA,""
"image-keyboard-response",253,261792,"0.0-3.80-2.80","y7c1rc2ykbhpafj",795,"5.csv","","null","resources/images/fishbone.png","null","",NA,NA,NA,NA,""
"image-keyboard-response",254,262411,"0.0-3.81-0.81","y7c1rc2ykbhpafj",795,"5.csv","","616.5999999940395","resources/trios/L2T1A2.jpg","37","restless",0.6,0.4,0.6,0.392495327978333,"true"
"image-keyboard-response",255,262820,"0.0-3.81-1.81","y7c1rc2ykbhpafj",795,"5.csv","","null","resources/maskTrios/L2BB.jpg","null","",NA,NA,NA,NA,""
"image-keyboard-response",256,264030,"0.0-3.81-2.81","y7c1rc2ykbhpafj",795,"5.csv","","null","resources/images/coin2.png","null","",NA,NA,NA,NA,""
"image-keyboard-response",257,264266,"0.0-3.82-0.82","y7c1rc2ykbhpafj",795,"5.csv","","234.39999997615814","resources/trios/L2T1A3.jpg","37","restless",0.6,0.4,0.6,0.790125665114441,"false"
"image-keyboard-response",258,264680,"0.0-3.82-1.82","y7c1rc2ykbhpafj",795,"5.csv","","null","resources/maskTrios/L2BB.jpg","null","",NA,NA,NA,NA,""
"image-keyboard-response",259,265884,"0.0-3.82-2.82","y7c1rc2ykbhpafj",795,"5.csv","","null","resources/images/fishbone.png","null","",NA,NA,NA,NA,""
"image-keyboard-response",260,266340,"0.0-3.83-0.83","y7c1rc2ykbhpafj",795,"5.csv","","454.30000001192093","resources/trios/L1T4A3.jpg","37","restless",0.6,0.4,0.6,0.682966998422401,"false"
"image-keyboard-response",261,266752,"0.0-3.83-1.83","y7c1rc2ykbhpafj",795,"5.csv","","null","resources/maskTrios/L1BB.jpg","null","",NA,NA,NA,NA,""
"image-keyboard-response",262,267956,"0.0-3.83-2.83","y7c1rc2ykbhpafj",795,"5.csv","","null","resources/images/fishbone.png","null","",NA,NA,NA,NA,""
"image-keyboard-response",263,268294,"0.0-3.84-0.84","y7c1rc2ykbhpafj",795,"5.csv","","335.69999998807907","resources/trios/L2T1A3.jpg","38","restless",0.6,0.4,0.6,0.426534934881612,"false"
"image-keyboard-response",264,268704,"0.0-3.84-1.84","y7c1rc2ykbhpafj",795,"5.csv","","null","resources/maskTrios/BT1B.jpg","null","",NA,NA,NA,NA,""
"image-keyboard-response",265,269912,"0.0-3.84-2.84","y7c1rc2ykbhpafj",795,"5.csv","","null","resources/images/fishbone.png","null","",NA,NA,NA,NA,""
"image-keyboard-response",266,270257,"0.0-3.85-0.85","y7c1rc2ykbhpafj",795,"5.csv","","343.09999999403954","resources/trios/L2T4A2.jpg","37","restless",0.6,0.4,0.6,0.832361348309592,"false"
"image-keyboard-response",267,270671,"0.0-3.85-1.85","y7c1rc2ykbhpafj",795,"5.csv","","null","resources/maskTrios/L2BB.jpg","null","",NA,NA,NA,NA,""
"image-keyboard-response",268,271879,"0.0-3.85-2.85","y7c1rc2ykbhpafj",795,"5.csv","","null","resources/images/fishbone.png","null","",NA,NA,NA,NA,""
"image-keyboard-response",269,272373,"0.0-3.86-0.86","y7c1rc2ykbhpafj",795,"5.csv","","491.7000000178814","resources/trios/L2T4A3.jpg","38","restless",0.6,0.5,0.6,0.662359826648033,"false"
"image-keyboard-response",270,272779,"0.0-3.86-1.86","y7c1rc2ykbhpafj",795,"5.csv","","null","resources/maskTrios/BT4B.jpg","null","",NA,NA,NA,NA,""
"image-keyboard-response",271,273991,"0.0-3.86-2.86","y7c1rc2ykbhpafj",795,"5.csv","","null","resources/images/fishbone.png","null","",NA,NA,NA,NA,""
"image-keyboard-response",272,275176,"0.0-3.87-0.87","y7c1rc2ykbhpafj",795,"5.csv","","1182.6000000238419","resources/trios/L1T1A3.jpg","37","restless",0.6,0.5,0.6,0.390999379026512,"true"
"image-keyboard-response",273,275579,"0.0-3.87-1.87","y7c1rc2ykbhpafj",795,"5.csv","","null","resources/maskTrios/L1BB.jpg","null","",NA,NA,NA,NA,""
"image-keyboard-response",274,276787,"0.0-3.87-2.87","y7c1rc2ykbhpafj",795,"5.csv","","null","resources/images/coin2.png","null","",NA,NA,NA,NA,""
"image-keyboard-response",275,278232,"0.0-3.88-0.88","y7c1rc2ykbhpafj",795,"5.csv","","1442.4000000059605","resources/trios/L1T1A2.jpg","37","restless",0.6,0.5,0.6,0.869963979514148,"false"
"image-keyboard-response",276,278647,"0.0-3.88-1.88","y7c1rc2ykbhpafj",795,"5.csv","","null","resources/maskTrios/L1BB.jpg","null","",NA,NA,NA,NA,""
"image-keyboard-response",277,279855,"0.0-3.88-2.88","y7c1rc2ykbhpafj",795,"5.csv","","null","resources/images/fishbone.png","null","",NA,NA,NA,NA,""
"image-keyboard-response",278,280791,"0.0-3.89-0.89","y7c1rc2ykbhpafj",795,"5.csv","","933.3000000119209","resources/trios/L1T4A3.jpg","37","restless",0.7,0.5,0.6,0.884804268875317,"false"
"image-keyboard-response",279,281199,"0.0-3.89-1.89","y7c1rc2ykbhpafj",795,"5.csv","","null","resources/maskTrios/L1BB.jpg","null","",NA,NA,NA,NA,""
"image-keyboard-response",280,282407,"0.0-3.89-2.89","y7c1rc2ykbhpafj",795,"5.csv","","null","resources/images/fishbone.png","null","",NA,NA,NA,NA,""
"image-keyboard-response",281,285647,"0.0-3.90-0.90","y7c1rc2ykbhpafj",795,"5.csv","","3237.699999988079","resources/trios/L2T4A2.jpg","37","restless",0.7,0.5,0.6,0.461565165511978,"true"
"image-keyboard-response",282,286055,"0.0-3.90-1.90","y7c1rc2ykbhpafj",795,"5.csv","","null","resources/maskTrios/L2BB.jpg","null","",NA,NA,NA,NA,""
"image-keyboard-response",283,287263,"0.0-3.90-2.90","y7c1rc2ykbhpafj",795,"5.csv","","null","resources/images/coin2.png","null","",NA,NA,NA,NA,""
"image-keyboard-response",284,287788,"0.0-3.91-0.91","y7c1rc2ykbhpafj",795,"5.csv","","523.5","resources/trios/L1T1A3.jpg","38","restless",0.7,0.5,0.5,0.662683438576427,"false"
"image-keyboard-response",285,288199,"0.0-3.91-1.91","y7c1rc2ykbhpafj",795,"5.csv","","null","resources/maskTrios/BT1B.jpg","null","",NA,NA,NA,NA,""
"image-keyboard-response",286,289407,"0.0-3.91-2.91","y7c1rc2ykbhpafj",795,"5.csv","","null","resources/images/fishbone.png","null","",NA,NA,NA,NA,""
"image-keyboard-response",287,289710,"0.0-3.92-0.92","y7c1rc2ykbhpafj",795,"5.csv","","301.30000001192093","resources/trios/L1T1A3.jpg","37","restless",0.7,0.6,0.5,0.981240874030633,"false"
"image-keyboard-response",288,290114,"0.0-3.92-1.92","y7c1rc2ykbhpafj",795,"5.csv","","null","resources/maskTrios/L1BB.jpg","null","",NA,NA,NA,NA,""
"image-keyboard-response",289,291322,"0.0-3.92-2.92","y7c1rc2ykbhpafj",795,"5.csv","","null","resources/images/fishbone.png","null","",NA,NA,NA,NA,""
"image-keyboard-response",290,292447,"0.0-3.93-0.93","y7c1rc2ykbhpafj",795,"5.csv","","1123","resources/trios/L1T4A3.jpg","38","restless",0.7,0.6,0.5,0.195852611526856,"true"
"image-keyboard-response",291,292850,"0.0-3.93-1.93","y7c1rc2ykbhpafj",795,"5.csv","","null","resources/maskTrios/BT4B.jpg","null","",NA,NA,NA,NA,""
"image-keyboard-response",292,294058,"0.0-3.93-2.93","y7c1rc2ykbhpafj",795,"5.csv","","null","resources/images/coin2.png","null","",NA,NA,NA,NA,""
"image-keyboard-response",293,294413,"0.0-3.94-0.94","y7c1rc2ykbhpafj",795,"5.csv","","352.40000000596046","resources/trios/L1T4A3.jpg","38","restless",0.7,0.6,0.6,0.563543168404785,"true"
"image-keyboard-response",294,294822,"0.0-3.94-1.94","y7c1rc2ykbhpafj",795,"5.csv","","null","resources/maskTrios/BT4B.jpg","null","",NA,NA,NA,NA,""
"image-keyboard-response",295,296027,"0.0-3.94-2.94","y7c1rc2ykbhpafj",795,"5.csv","","null","resources/images/coin2.png","null","",NA,NA,NA,NA,""
"image-keyboard-response",296,296360,"0.0-3.95-0.95","y7c1rc2ykbhpafj",795,"5.csv","","330.2999999821186","resources/trios/L1T4A3.jpg","38","restless",0.7,0.6,0.7,0.864023123938178,"false"
"image-keyboard-response",297,296774,"0.0-3.95-1.95","y7c1rc2ykbhpafj",795,"5.csv","","null","resources/maskTrios/BT4B.jpg","null","",NA,NA,NA,NA,""
"image-keyboard-response",298,297977,"0.0-3.95-2.95","y7c1rc2ykbhpafj",795,"5.csv","","null","resources/images/fishbone.png","null","",NA,NA,NA,NA,""
"image-keyboard-response",299,298721,"0.0-3.96-0.96","y7c1rc2ykbhpafj",795,"5.csv","","742.2999999821186","resources/trios/L1T1A3.jpg","37","restless",0.7,0.6,0.7,0.741318253237583,"false"
"image-keyboard-response",300,299131,"0.0-3.96-1.96","y7c1rc2ykbhpafj",795,"5.csv","","null","resources/maskTrios/L1BB.jpg","null","",NA,NA,NA,NA,""
"image-keyboard-response",301,300338,"0.0-3.96-2.96","y7c1rc2ykbhpafj",795,"5.csv","","null","resources/images/fishbone.png","null","",NA,NA,NA,NA,""
"image-keyboard-response",302,300627,"0.0-3.97-0.97","y7c1rc2ykbhpafj",795,"5.csv","","286.90000000596046","resources/trios/L1T4A2.jpg","38","restless",0.7,0.6,0.7,0.572036508577574,"true"
"image-keyboard-response",303,301038,"0.0-3.97-1.97","y7c1rc2ykbhpafj",795,"5.csv","","null","resources/maskTrios/BT4B.jpg","null","",NA,NA,NA,NA,""
"image-keyboard-response",304,302244,"0.0-3.97-2.97","y7c1rc2ykbhpafj",795,"5.csv","","null","resources/images/coin2.png","null","",NA,NA,NA,NA,""
"image-keyboard-response",305,302553,"0.0-3.98-0.98","y7c1rc2ykbhpafj",795,"5.csv","","306.7000000178814","resources/trios/L1T1A2.jpg","38","restless",0.7,0.6,0.7,0.624141507505415,"false"
"image-keyboard-response",306,302961,"0.0-3.98-1.98","y7c1rc2ykbhpafj",795,"5.csv","","null","resources/maskTrios/BT1B.jpg","null","",NA,NA,NA,NA,""
"image-keyboard-response",307,304170,"0.0-3.98-2.98","y7c1rc2ykbhpafj",795,"5.csv","","null","resources/images/fishbone.png","null","",NA,NA,NA,NA,""
"image-keyboard-response",308,304984,"0.0-3.99-0.99","y7c1rc2ykbhpafj",795,"5.csv","","812.1000000238419","resources/trios/L2T4A2.jpg","37","restless",0.7,0.6,0.7,0.504008499789239,"true"
"image-keyboard-response",309,305398,"0.0-3.99-1.99","y7c1rc2ykbhpafj",795,"5.csv","","null","resources/maskTrios/L2BB.jpg","null","",NA,NA,NA,NA,""
"image-keyboard-response",310,306605,"0.0-3.99-2.99","y7c1rc2ykbhpafj",795,"5.csv","","null","resources/images/coin2.png","null","",NA,NA,NA,NA,""
"image-keyboard-response",311,307264,"0.0-3.100-0.100","y7c1rc2ykbhpafj",795,"5.csv","","657.5999999940395","resources/trios/L2T1A2.jpg","37","restless",0.7,0.6,0.7,0.82262965012542,"false"
"image-keyboard-response",312,307677,"0.0-3.100-1.100","y7c1rc2ykbhpafj",795,"5.csv","","null","resources/maskTrios/L2BB.jpg","null","",NA,NA,NA,NA,""
"image-keyboard-response",313,308883,"0.0-3.100-2.100","y7c1rc2ykbhpafj",795,"5.csv","","null","resources/images/fishbone.png","null","",NA,NA,NA,NA,""
"image-keyboard-response",314,309318,"0.0-3.101-0.101","y7c1rc2ykbhpafj",795,"5.csv","","433.40000000596046","resources/trios/L2T1A2.jpg","38","restless",0.7,0.6,0.7,0.0268782565815531,"true"
"image-keyboard-response",315,309733,"0.0-3.101-1.101","y7c1rc2ykbhpafj",795,"5.csv","","null","resources/maskTrios/BT1B.jpg","null","",NA,NA,NA,NA,""
"image-keyboard-response",316,310941,"0.0-3.101-2.101","y7c1rc2ykbhpafj",795,"5.csv","","null","resources/images/coin2.png","null","",NA,NA,NA,NA,""
"image-keyboard-response",317,311397,"0.0-3.102-0.102","y7c1rc2ykbhpafj",795,"5.csv","","453.80000001192093","resources/trios/L2T4A2.jpg","38","restless",0.7,0.6,0.7,0.62897981215902,"false"
"image-keyboard-response",318,311801,"0.0-3.102-1.102","y7c1rc2ykbhpafj",795,"5.csv","","null","resources/maskTrios/BT4B.jpg","null","",NA,NA,NA,NA,""
"image-keyboard-response",319,313009,"0.0-3.102-2.102","y7c1rc2ykbhpafj",795,"5.csv","","null","resources/images/fishbone.png","null","",NA,NA,NA,NA,""
"image-keyboard-response",320,313627,"0.0-3.103-0.103","y7c1rc2ykbhpafj",795,"5.csv","","616","resources/trios/L1T4A2.jpg","37","restless",0.7,0.6,0.7,0.480493652492434,"true"
"image-keyboard-response",321,314035,"0.0-3.103-1.103","y7c1rc2ykbhpafj",795,"5.csv","","null","resources/maskTrios/L1BB.jpg","null","",NA,NA,NA,NA,""
"image-keyboard-response",322,315245,"0.0-3.103-2.103","y7c1rc2ykbhpafj",795,"5.csv","","null","resources/images/coin2.png","null","",NA,NA,NA,NA,""
"image-keyboard-response",323,315681,"0.0-3.104-0.104","y7c1rc2ykbhpafj",795,"5.csv","","434.10000002384186","resources/trios/L2T4A2.jpg","37","restless",0.7,0.7,0.7,0.689153600297452,"true"
"image-keyboard-response",324,316091,"0.0-3.104-1.104","y7c1rc2ykbhpafj",795,"5.csv","","null","resources/maskTrios/L2BB.jpg","null","",NA,NA,NA,NA,""
"image-keyboard-response",325,317297,"0.0-3.104-2.104","y7c1rc2ykbhpafj",795,"5.csv","","null","resources/images/coin2.png","null","",NA,NA,NA,NA,""
"image-keyboard-response",326,317716,"0.0-3.105-0.105","y7c1rc2ykbhpafj",795,"5.csv","","417","resources/trios/L1T4A2.jpg","37","restless",0.7,0.8,0.7,0.852736514502265,"false"
"image-keyboard-response",327,318125,"0.0-3.105-1.105","y7c1rc2ykbhpafj",795,"5.csv","","null","resources/maskTrios/L1BB.jpg","null","",NA,NA,NA,NA,""
"image-keyboard-response",328,319332,"0.0-3.105-2.105","y7c1rc2ykbhpafj",795,"5.csv","","null","resources/images/fishbone.png","null","",NA,NA,NA,NA,""
"image-keyboard-response",329,319902,"0.0-3.106-0.106","y7c1rc2ykbhpafj",795,"5.csv","","569.0999999940395","resources/trios/L1T4A3.jpg","38","restless",0.6,0.7,0.7,0.593815607627308,"true"
"image-keyboard-response",330,320309,"0.0-3.106-1.106","y7c1rc2ykbhpafj",795,"5.csv","","null","resources/maskTrios/BT4B.jpg","null","",NA,NA,NA,NA,""
"image-keyboard-response",331,321513,"0.0-3.106-2.106","y7c1rc2ykbhpafj",795,"5.csv","","null","resources/images/coin2.png","null","",NA,NA,NA,NA,""
"image-keyboard-response",332,321946,"0.0-3.107-0.107","y7c1rc2ykbhpafj",795,"5.csv","","431.2000000178814","resources/trios/L1T1A2.jpg","38","restless",0.6,0.7,0.7,0.0473471801517966,"true"
"image-keyboard-response",333,322352,"0.0-3.107-1.107","y7c1rc2ykbhpafj",795,"5.csv","","null","resources/maskTrios/BT1B.jpg","null","",NA,NA,NA,NA,""
"image-keyboard-response",334,323565,"0.0-3.107-2.107","y7c1rc2ykbhpafj",795,"5.csv","","null","resources/images/coin2.png","null","",NA,NA,NA,NA,""
"image-keyboard-response",335,324018,"0.0-3.108-0.108","y7c1rc2ykbhpafj",795,"5.csv","","450.80000001192093","resources/trios/L1T4A2.jpg","38","restless",0.6,0.6,0.7,0.153846269987954,"true"
"image-keyboard-response",336,324426,"0.0-3.108-1.108","y7c1rc2ykbhpafj",795,"5.csv","","null","resources/maskTrios/BT4B.jpg","null","",NA,NA,NA,NA,""
"image-keyboard-response",337,325637,"0.0-3.108-2.108","y7c1rc2ykbhpafj",795,"5.csv","","null","resources/images/coin2.png","null","",NA,NA,NA,NA,""
"image-keyboard-response",338,326068,"0.0-3.109-0.109","y7c1rc2ykbhpafj",795,"5.csv","","428.89999997615814","resources/trios/L1T1A3.jpg","38","restless",0.6,0.6,0.7,0.642722942410229,"false"
"image-keyboard-response",339,326476,"0.0-3.109-1.109","y7c1rc2ykbhpafj",795,"5.csv","","null","resources/maskTrios/BT1B.jpg","null","",NA,NA,NA,NA,""
"image-keyboard-response",340,327685,"0.0-3.109-2.109","y7c1rc2ykbhpafj",795,"5.csv","","null","resources/images/fishbone.png","null","",NA,NA,NA,NA,""
"image-keyboard-response",341,328343,"0.0-3.110-0.110","y7c1rc2ykbhpafj",795,"5.csv","","656.4000000059605","resources/trios/L1T1A2.jpg","37","restless",0.6,0.6,0.7,0.687420180038233,"false"
"image-keyboard-response",342,328756,"0.0-3.110-1.110","y7c1rc2ykbhpafj",795,"5.csv","","null","resources/maskTrios/L1BB.jpg","null","",NA,NA,NA,NA,""
"image-keyboard-response",343,329964,"0.0-3.110-2.110","y7c1rc2ykbhpafj",795,"5.csv","","null","resources/images/fishbone.png","null","",NA,NA,NA,NA,""
"image-keyboard-response",344,331527,"0.0-3.111-0.111","y7c1rc2ykbhpafj",795,"5.csv","","1561.1000000238419","resources/trios/L1T1A3.jpg","38","restless",0.6,0.6,0.7,0.551401555385925,"true"
"image-keyboard-response",345,331939,"0.0-3.111-1.111","y7c1rc2ykbhpafj",795,"5.csv","","null","resources/maskTrios/BT1B.jpg","null","",NA,NA,NA,NA,""
"image-keyboard-response",346,333146,"0.0-3.111-2.111","y7c1rc2ykbhpafj",795,"5.csv","","null","resources/images/coin2.png","null","",NA,NA,NA,NA,""
"image-keyboard-response",347,333800,"0.0-3.112-0.112","y7c1rc2ykbhpafj",795,"5.csv","","651.7000000178814","resources/trios/L2T4A2.jpg","38","restless",0.5,0.6,0.7,0.577811201431785,"true"
"image-keyboard-response",348,334212,"0.0-3.112-1.112","y7c1rc2ykbhpafj",795,"5.csv","","null","resources/maskTrios/BT4B.jpg","null","",NA,NA,NA,NA,""
"image-keyboard-response",349,335416,"0.0-3.112-2.112","y7c1rc2ykbhpafj",795,"5.csv","","null","resources/images/coin2.png","null","",NA,NA,NA,NA,""
"image-keyboard-response",350,335864,"0.0-3.113-0.113","y7c1rc2ykbhpafj",795,"5.csv","","445.90000000596046","resources/trios/L1T1A2.jpg","38","restless",0.5,0.6,0.7,0.844279544464907,"false"
"image-keyboard-response",351,336275,"0.0-3.113-1.113","y7c1rc2ykbhpafj",795,"5.csv","","null","resources/maskTrios/BT1B.jpg","null","",NA,NA,NA,NA,""
"image-keyboard-response",352,337482,"0.0-3.113-2.113","y7c1rc2ykbhpafj",795,"5.csv","","null","resources/images/fishbone.png","null","",NA,NA,NA,NA,""
"image-keyboard-response",353,338025,"0.0-3.114-0.114","y7c1rc2ykbhpafj",795,"5.csv","","540.5","resources/trios/L2T1A2.jpg","37","restless",0.5,0.6,0.7,0.331965255704555,"true"
"image-keyboard-response",354,338436,"0.0-3.114-1.114","y7c1rc2ykbhpafj",795,"5.csv","","null","resources/maskTrios/L2BB.jpg","null","",NA,NA,NA,NA,""
"image-keyboard-response",355,339640,"0.0-3.114-2.114","y7c1rc2ykbhpafj",795,"5.csv","","null","resources/images/coin2.png","null","",NA,NA,NA,NA,""
"image-keyboard-response",356,340074,"0.0-3.115-0.115","y7c1rc2ykbhpafj",795,"5.csv","","431.5","resources/trios/L2T4A2.jpg","37","restless",0.5,0.6,0.7,0.759940409819281,"false"
"image-keyboard-response",357,340484,"0.0-3.115-1.115","y7c1rc2ykbhpafj",795,"5.csv","","null","resources/maskTrios/L2BB.jpg","null","",NA,NA,NA,NA,""
"image-keyboard-response",358,341692,"0.0-3.115-2.115","y7c1rc2ykbhpafj",795,"5.csv","","null","resources/images/fishbone.png","null","",NA,NA,NA,NA,""
"image-keyboard-response",359,342175,"0.0-3.116-0.116","y7c1rc2ykbhpafj",795,"5.csv","","480.69999998807907","resources/trios/L2T4A3.jpg","38","restless",0.5,0.5,0.8,0.409457378766236,"true"
"image-keyboard-response",360,342584,"0.0-3.116-1.116","y7c1rc2ykbhpafj",795,"5.csv","","null","resources/maskTrios/BT4B.jpg","null","",NA,NA,NA,NA,""
"image-keyboard-response",361,343791,"0.0-3.116-2.116","y7c1rc2ykbhpafj",795,"5.csv","","null","resources/images/coin2.png","null","",NA,NA,NA,NA,""
"image-keyboard-response",362,344897,"0.0-3.117-0.117","y7c1rc2ykbhpafj",795,"5.csv","","1105.199999988079","resources/trios/L1T4A2.jpg","38","restless",0.5,0.5,0.8,0.548598268174131,"false"
"image-keyboard-response",363,345308,"0.0-3.117-1.117","y7c1rc2ykbhpafj",795,"5.csv","","null","resources/maskTrios/BT4B.jpg","null","",NA,NA,NA,NA,""
"image-keyboard-response",364,346516,"0.0-3.117-2.117","y7c1rc2ykbhpafj",795,"5.csv","","null","resources/images/fishbone.png","null","",NA,NA,NA,NA,""
"image-keyboard-response",365,348987,"0.0-3.118-0.118","y7c1rc2ykbhpafj",795,"5.csv","","2469.9000000059605","resources/trios/L1T4A3.jpg","37","restless",0.4,0.5,0.8,0.0669676770422767,"true"
"image-keyboard-response",366,349396,"0.0-3.118-1.118","y7c1rc2ykbhpafj",795,"5.csv","","null","resources/maskTrios/L1BB.jpg","null","",NA,NA,NA,NA,""
"image-keyboard-response",367,350603,"0.0-3.118-2.118","y7c1rc2ykbhpafj",795,"5.csv","","null","resources/images/coin2.png","null","",NA,NA,NA,NA,""
"image-keyboard-response",368,351638,"0.0-3.119-0.119","y7c1rc2ykbhpafj",795,"5.csv","","1032.7999999821186","resources/trios/L1T4A3.jpg","37","restless",0.4,0.6,0.8,0.699604706150087,"false"
"image-keyboard-response",369,352051,"0.0-3.119-1.119","y7c1rc2ykbhpafj",795,"5.csv","","null","resources/maskTrios/L1BB.jpg","null","",NA,NA,NA,NA,""
"image-keyboard-response",370,353259,"0.0-3.119-2.119","y7c1rc2ykbhpafj",795,"5.csv","","null","resources/images/fishbone.png","null","",NA,NA,NA,NA,""
"image-keyboard-response",371,353576,"0.0-3.120-0.120","y7c1rc2ykbhpafj",795,"5.csv","","313.7000000178814","resources/trios/L1T4A2.jpg","38","restless",0.4,0.6,0.8,0.863652743871334,"false"
"image-keyboard-response",372,353987,"0.0-3.120-1.120","y7c1rc2ykbhpafj",795,"5.csv","","null","resources/maskTrios/BT4B.jpg","null","",NA,NA,NA,NA,""
"image-keyboard-response",373,355195,"0.0-3.120-2.120","y7c1rc2ykbhpafj",795,"5.csv","","null","resources/images/fishbone.png","null","",NA,NA,NA,NA,""
"image-keyboard-response",374,359513,"0.0-3.121-0.121","y7c1rc2ykbhpafj",795,"5.csv","","4316","resources/trios/L2T4A2.jpg","37","restless",0.4,0.5,0.8,0.977979848232566,"false"
"image-keyboard-response",375,359919,"0.0-3.121-1.121","y7c1rc2ykbhpafj",795,"5.csv","","null","resources/maskTrios/L2BB.jpg","null","",NA,NA,NA,NA,""
"image-keyboard-response",376,361130,"0.0-3.121-2.121","y7c1rc2ykbhpafj",795,"5.csv","","null","resources/images/fishbone.png","null","",NA,NA,NA,NA,""
"image-keyboard-response",377,361594,"0.0-3.122-0.122","y7c1rc2ykbhpafj",795,"5.csv","","462.19999998807907","resources/trios/L2T4A3.jpg","38","restless",0.4,0.5,0.8,0.354870580481545,"true"
"image-keyboard-response",378,362003,"0.0-3.122-1.122","y7c1rc2ykbhpafj",795,"5.csv","","null","resources/maskTrios/BT4B.jpg","null","",NA,NA,NA,NA,""
"image-keyboard-response",379,363211,"0.0-3.122-2.122","y7c1rc2ykbhpafj",795,"5.csv","","null","resources/images/coin2.png","null","",NA,NA,NA,NA,""
"image-keyboard-response",380,363851,"0.0-3.123-0.123","y7c1rc2ykbhpafj",795,"5.csv","","637.5","resources/trios/L1T1A3.jpg","37","restless",0.4,0.5,0.8,0.772027235743098,"false"
"image-keyboard-response",381,364255,"0.0-3.123-1.123","y7c1rc2ykbhpafj",795,"5.csv","","null","resources/maskTrios/L1BB.jpg","null","",NA,NA,NA,NA,""
"image-keyboard-response",382,365467,"0.0-3.123-2.123","y7c1rc2ykbhpafj",795,"5.csv","","null","resources/images/fishbone.png","null","",NA,NA,NA,NA,""
"image-keyboard-response",383,366465,"0.0-3.124-0.124","y7c1rc2ykbhpafj",795,"5.csv","","996.4000000059605","resources/trios/L1T1A3.jpg","38","restless",0.4,0.5,0.8,0.001757568104789,"true"
"image-keyboard-response",384,366874,"0.0-3.124-1.124","y7c1rc2ykbhpafj",795,"5.csv","","null","resources/maskTrios/BT1B.jpg","null","",NA,NA,NA,NA,""
"image-keyboard-response",385,368080,"0.0-3.124-2.124","y7c1rc2ykbhpafj",795,"5.csv","","null","resources/images/coin2.png","null","",NA,NA,NA,NA,""
"image-keyboard-response",386,368509,"0.0-3.125-0.125","y7c1rc2ykbhpafj",795,"5.csv","","427.40000000596046","resources/trios/L2T1A2.jpg","38","restless",0.3,0.5,0.8,0.0127195036341241,"true"
"image-keyboard-response",387,368923,"0.0-3.125-1.125","y7c1rc2ykbhpafj",795,"5.csv","","null","resources/maskTrios/BT1B.jpg","null","",NA,NA,NA,NA,""
"image-keyboard-response",388,370130,"0.0-3.125-2.125","y7c1rc2ykbhpafj",795,"5.csv","","null","resources/images/coin2.png","null","",NA,NA,NA,NA,""
"image-keyboard-response",389,370946,"0.0-3.126-0.126","y7c1rc2ykbhpafj",795,"5.csv","","813.3000000119209","resources/trios/L2T1A2.jpg","38","restless",0.3,0.5,0.7,0.54982321526054,"false"
"image-keyboard-response",390,371354,"0.0-3.126-1.126","y7c1rc2ykbhpafj",795,"5.csv","","null","resources/maskTrios/BT1B.jpg","null","",NA,NA,NA,NA,""
"image-keyboard-response",391,372561,"0.0-3.126-2.126","y7c1rc2ykbhpafj",795,"5.csv","","null","resources/images/fishbone.png","null","",NA,NA,NA,NA,""
"image-keyboard-response",392,374613,"0.0-3.127-0.127","y7c1rc2ykbhpafj",795,"5.csv","","2049.9000000059605","resources/trios/L2T1A3.jpg","37","restless",0.3,0.5,0.7,0.651427145557779,"false"
"image-keyboard-response",393,375026,"0.0-3.127-1.127","y7c1rc2ykbhpafj",795,"5.csv","","null","resources/maskTrios/L2BB.jpg","null","",NA,NA,NA,NA,""
"image-keyboard-response",394,376234,"0.0-3.127-2.127","y7c1rc2ykbhpafj",795,"5.csv","","null","resources/images/fishbone.png","null","",NA,NA,NA,NA,""
"image-keyboard-response",395,376864,"0.0-3.128-0.128","y7c1rc2ykbhpafj",795,"5.csv","","627.4000000059605","resources/trios/L1T4A3.jpg","38","restless",0.3,0.5,0.7,0.28322445026428,"true"
"image-keyboard-response",396,377273,"0.0-3.128-1.128","y7c1rc2ykbhpafj",795,"5.csv","","null","resources/maskTrios/BT4B.jpg","null","",NA,NA,NA,NA,""
"image-keyboard-response",397,378482,"0.0-3.128-2.128","y7c1rc2ykbhpafj",795,"5.csv","","null","resources/images/coin2.png","null","",NA,NA,NA,NA,""
"image-keyboard-response",398,379022,"0.0-3.129-0.129","y7c1rc2ykbhpafj",795,"5.csv","","537.5999999940395","resources/trios/L1T4A2.jpg","38","restless",0.3,0.5,0.7,0.315616624730263,"true"
"image-keyboard-response",399,379434,"0.0-3.129-1.129","y7c1rc2ykbhpafj",795,"5.csv","","null","resources/maskTrios/BT4B.jpg","null","",NA,NA,NA,NA,""
"image-keyboard-response",400,380642,"0.0-3.129-2.129","y7c1rc2ykbhpafj",795,"5.csv","","null","resources/images/coin2.png","null","",NA,NA,NA,NA,""
"image-keyboard-response",401,381027,"0.0-3.130-0.130","y7c1rc2ykbhpafj",795,"5.csv","","382.30000001192093","resources/trios/L2T4A2.jpg","38","restless",0.3,0.5,0.7,0.124643675572261,"true"
"image-keyboard-response",402,381430,"0.0-3.130-1.130","y7c1rc2ykbhpafj",795,"5.csv","","null","resources/maskTrios/BT4B.jpg","null","",NA,NA,NA,NA,""
"image-keyboard-response",403,382642,"0.0-3.130-2.130","y7c1rc2ykbhpafj",795,"5.csv","","null","resources/images/coin2.png","null","",NA,NA,NA,NA,""
"image-keyboard-response",404,383067,"0.0-3.131-0.131","y7c1rc2ykbhpafj",795,"5.csv","","422.5","resources/trios/L2T4A3.jpg","38","restless",0.3,0.5,0.6,0.852976004278833,"false"
"image-keyboard-response",405,383478,"0.0-3.131-1.131","y7c1rc2ykbhpafj",795,"5.csv","","null","resources/maskTrios/BT4B.jpg","null","",NA,NA,NA,NA,""
"image-keyboard-response",406,384690,"0.0-3.131-2.131","y7c1rc2ykbhpafj",795,"5.csv","","null","resources/images/fishbone.png","null","",NA,NA,NA,NA,""
"image-keyboard-response",407,385489,"0.0-3.132-0.132","y7c1rc2ykbhpafj",795,"5.csv","","797.4000000059605","resources/trios/L2T1A2.jpg","38","restless",0.3,0.5,0.6,0.442724980383474,"true"
"image-keyboard-response",408,385894,"0.0-3.132-1.132","y7c1rc2ykbhpafj",795,"5.csv","","null","resources/maskTrios/BT1B.jpg","null","",NA,NA,NA,NA,""
"image-keyboard-response",409,387106,"0.0-3.132-2.132","y7c1rc2ykbhpafj",795,"5.csv","","null","resources/images/coin2.png","null","",NA,NA,NA,NA,""
"image-keyboard-response",410,387476,"0.0-3.133-0.133","y7c1rc2ykbhpafj",795,"5.csv","","368.69999998807907","resources/trios/L1T1A2.jpg","38","restless",0.3,0.5,0.6,0.718717651388603,"false"
"image-keyboard-response",411,387885,"0.0-3.133-1.133","y7c1rc2ykbhpafj",795,"5.csv","","null","resources/maskTrios/BT1B.jpg","null","",NA,NA,NA,NA,""
"image-keyboard-response",412,389098,"0.0-3.133-2.133","y7c1rc2ykbhpafj",795,"5.csv","","null","resources/images/fishbone.png","null","",NA,NA,NA,NA,""
"image-keyboard-response",413,390425,"0.0-3.134-0.134","y7c1rc2ykbhpafj",795,"5.csv","","1325.5999999940395","resources/trios/L1T1A2.jpg","37","restless",0.3,0.5,0.6,0.685046363030013,"false"
"image-keyboard-response",414,390833,"0.0-3.134-1.134","y7c1rc2ykbhpafj",795,"5.csv","","null","resources/maskTrios/L1BB.jpg","null","",NA,NA,NA,NA,""
"image-keyboard-response",415,392041,"0.0-3.134-2.134","y7c1rc2ykbhpafj",795,"5.csv","","null","resources/images/fishbone.png","null","",NA,NA,NA,NA,""
"image-keyboard-response",416,392925,"0.0-3.135-0.135","y7c1rc2ykbhpafj",795,"5.csv","","881.5","resources/trios/L2T4A2.jpg","38","restless",0.3,0.5,0.6,0.0357298879418804,"true"
"image-keyboard-response",417,393334,"0.0-3.135-1.135","y7c1rc2ykbhpafj",795,"5.csv","","null","resources/maskTrios/BT4B.jpg","null","",NA,NA,NA,NA,""
"image-keyboard-response",418,394541,"0.0-3.135-2.135","y7c1rc2ykbhpafj",795,"5.csv","","null","resources/images/coin2.png","null","",NA,NA,NA,NA,""
"image-keyboard-response",419,394936,"0.0-3.136-0.136","y7c1rc2ykbhpafj",795,"5.csv","","393.2000000178814","resources/trios/L2T1A3.jpg","38","restless",0.3,0.5,0.6,0.757338298001411,"false"
"image-keyboard-response",420,395345,"0.0-3.136-1.136","y7c1rc2ykbhpafj",795,"5.csv","","null","resources/maskTrios/BT1B.jpg","null","",NA,NA,NA,NA,""
"image-keyboard-response",421,396553,"0.0-3.136-2.136","y7c1rc2ykbhpafj",795,"5.csv","","null","resources/images/fishbone.png","null","",NA,NA,NA,NA,""
"image-keyboard-response",422,396863,"0.0-3.137-0.137","y7c1rc2ykbhpafj",795,"5.csv","","307.5","resources/trios/L2T1A2.jpg","38","restless",0.4,0.5,0.5,0.0682424590022443,"true"
"image-keyboard-response",423,397273,"0.0-3.137-1.137","y7c1rc2ykbhpafj",795,"5.csv","","null","resources/maskTrios/BT1B.jpg","null","",NA,NA,NA,NA,""
"image-keyboard-response",424,398479,"0.0-3.137-2.137","y7c1rc2ykbhpafj",795,"5.csv","","null","resources/images/coin2.png","null","",NA,NA,NA,NA,""
"image-keyboard-response",425,399142,"0.0-3.138-0.138","y7c1rc2ykbhpafj",795,"5.csv","","661.0999999940395","resources/trios/L1T1A2.jpg","38","restless",0.4,0.5,0.5,0.274355550744526,"true"
"image-keyboard-response",426,399553,"0.0-3.138-1.138","y7c1rc2ykbhpafj",795,"5.csv","","null","resources/maskTrios/BT1B.jpg","null","",NA,NA,NA,NA,""
"image-keyboard-response",427,400761,"0.0-3.138-2.138","y7c1rc2ykbhpafj",795,"5.csv","","null","resources/images/coin2.png","null","",NA,NA,NA,NA,""
"image-keyboard-response",428,401332,"0.0-3.139-0.139","y7c1rc2ykbhpafj",795,"5.csv","","568.4000000059605","resources/trios/L1T4A2.jpg","38","restless",0.4,0.5,0.6,0.827642517407914,"false"
"image-keyboard-response",429,401741,"0.0-3.139-1.139","y7c1rc2ykbhpafj",795,"5.csv","","null","resources/maskTrios/BT4B.jpg","null","",NA,NA,NA,NA,""
"image-keyboard-response",430,402950,"0.0-3.139-2.139","y7c1rc2ykbhpafj",795,"5.csv","","null","resources/images/fishbone.png","null","",NA,NA,NA,NA,""
"image-keyboard-response",431,403400,"0.0-3.140-0.140","y7c1rc2ykbhpafj",795,"5.csv","","447.09999999403954","resources/trios/L1T1A2.jpg","37","restless",0.4,0.5,0.6,0.886152192346492,"false"
"image-keyboard-response",432,403809,"0.0-3.140-1.140","y7c1rc2ykbhpafj",795,"5.csv","","null","resources/maskTrios/L1BB.jpg","null","",NA,NA,NA,NA,""
"image-keyboard-response",433,405017,"0.0-3.140-2.140","y7c1rc2ykbhpafj",795,"5.csv","","null","resources/images/fishbone.png","null","",NA,NA,NA,NA,""
"image-keyboard-response",434,405359,"0.0-3.141-0.141","y7c1rc2ykbhpafj",795,"5.csv","","340.40000000596046","resources/trios/L2T4A2.jpg","38","restless",0.4,0.5,0.6,0.0846271877236286,"true"
"image-keyboard-response",435,405765,"0.0-3.141-1.141","y7c1rc2ykbhpafj",795,"5.csv","","null","resources/maskTrios/BT4B.jpg","null","",NA,NA,NA,NA,""
"image-keyboard-response",436,406972,"0.0-3.141-2.141","y7c1rc2ykbhpafj",795,"5.csv","","null","resources/images/coin2.png","null","",NA,NA,NA,NA,""
"image-keyboard-response",437,407030,"0.0-3.142-0.142","y7c1rc2ykbhpafj",795,"5.csv","","55.400000005960464","resources/trios/L1T4A3.jpg","38","restless",0.4,0.5,0.6,0.295907294524075,"true"
"image-keyboard-response",438,407439,"0.0-3.142-1.142","y7c1rc2ykbhpafj",795,"5.csv","","null","resources/maskTrios/BT4B.jpg","null","",NA,NA,NA,NA,""
"image-keyboard-response",439,408649,"0.0-3.142-2.142","y7c1rc2ykbhpafj",795,"5.csv","","null","resources/images/coin2.png","null","",NA,NA,NA,NA,""
"image-keyboard-response",440,408763,"0.0-3.143-0.143","y7c1rc2ykbhpafj",795,"5.csv","","112.5","resources/trios/L1T1A2.jpg","38","restless",0.3,0.5,0.6,0.894191356973847,"false"
"image-keyboard-response",441,409172,"0.0-3.143-1.143","y7c1rc2ykbhpafj",795,"5.csv","","null","resources/maskTrios/BT1B.jpg","null","",NA,NA,NA,NA,""
"image-keyboard-response",442,410381,"0.0-3.143-2.143","y7c1rc2ykbhpafj",795,"5.csv","","null","resources/images/fishbone.png","null","",NA,NA,NA,NA,""
"image-keyboard-response",443,410652,"0.0-3.144-0.144","y7c1rc2ykbhpafj",795,"5.csv","","268.60000002384186","resources/trios/L1T4A2.jpg","37","restless",0.3,0.5,0.6,0.258236587929433,"true"
"image-keyboard-response",444,411065,"0.0-3.144-1.144","y7c1rc2ykbhpafj",795,"5.csv","","null","resources/maskTrios/L1BB.jpg","null","",NA,NA,NA,NA,""
"image-keyboard-response",445,412272,"0.0-3.144-2.144","y7c1rc2ykbhpafj",795,"5.csv","","null","resources/images/coin2.png","null","",NA,NA,NA,NA,""
"image-keyboard-response",446,412957,"0.0-3.145-0.145","y7c1rc2ykbhpafj",795,"5.csv","","682.5999999940395","resources/trios/L2T4A3.jpg","37","restless",0.3,0.5,0.6,0.134221433576449,"true"
"image-keyboard-response",447,413368,"0.0-3.145-1.145","y7c1rc2ykbhpafj",795,"5.csv","","null","resources/maskTrios/L2BB.jpg","null","",NA,NA,NA,NA,""
"image-keyboard-response",448,414571,"0.0-3.145-2.145","y7c1rc2ykbhpafj",795,"5.csv","","null","resources/images/coin2.png","null","",NA,NA,NA,NA,""
"image-keyboard-response",449,415107,"0.0-3.146-0.146","y7c1rc2ykbhpafj",795,"5.csv","","533.4000000059605","resources/trios/L1T4A3.jpg","38","restless",0.3,0.5,0.6,0.112509629496275,"true"
"image-keyboard-response",450,415520,"0.0-3.146-1.146","y7c1rc2ykbhpafj",795,"5.csv","","null","resources/maskTrios/BT4B.jpg","null","",NA,NA,NA,NA,""
"image-keyboard-response",451,416725,"0.0-3.146-2.146","y7c1rc2ykbhpafj",795,"5.csv","","null","resources/images/coin2.png","null","",NA,NA,NA,NA,""
"image-keyboard-response",452,416997,"0.0-3.147-0.147","y7c1rc2ykbhpafj",795,"5.csv","","269.89999997615814","resources/trios/L2T1A3.jpg","38","restless",0.2,0.5,0.6,0.89364185844952,"false"
"image-keyboard-response",453,417408,"0.0-3.147-1.147","y7c1rc2ykbhpafj",795,"5.csv","","null","resources/maskTrios/BT1B.jpg","null","",NA,NA,NA,NA,""
"image-keyboard-response",454,418612,"0.0-3.147-2.147","y7c1rc2ykbhpafj",795,"5.csv","","null","resources/images/fishbone.png","null","",NA,NA,NA,NA,""
"image-keyboard-response",455,418848,"0.0-3.148-0.148","y7c1rc2ykbhpafj",795,"5.csv","","233.40000000596046","resources/trios/L1T4A2.jpg","38","restless",0.2,0.5,0.6,0.733512558575455,"false"
"image-keyboard-response",456,419254,"0.0-3.148-1.148","y7c1rc2ykbhpafj",795,"5.csv","","null","resources/maskTrios/BT4B.jpg","null","",NA,NA,NA,NA,""
"image-keyboard-response",457,420464,"0.0-3.148-2.148","y7c1rc2ykbhpafj",795,"5.csv","","null","resources/images/fishbone.png","null","",NA,NA,NA,NA,""
"image-keyboard-response",458,420859,"0.0-3.149-0.149","y7c1rc2ykbhpafj",795,"5.csv","","392.69999998807907","resources/trios/L2T1A2.jpg","37","restless",0.2,0.5,0.6,0.867292590447238,"false"
"image-keyboard-response",459,421272,"0.0-3.149-1.149","y7c1rc2ykbhpafj",795,"5.csv","","null","resources/maskTrios/L2BB.jpg","null","",NA,NA,NA,NA,""
"image-keyboard-response",460,422476,"0.0-3.149-2.149","y7c1rc2ykbhpafj",795,"5.csv","","null","resources/images/fishbone.png","null","",NA,NA,NA,NA,""
"image-keyboard-response",461,422727,"0.0-3.150-0.150","y7c1rc2ykbhpafj",795,"5.csv","","248.7999999821186","resources/trios/L2T4A2.jpg","37","restless",0.2,0.5,0.6,0.208080333559414,"false"
"image-keyboard-response",462,423136,"0.0-3.150-1.150","y7c1rc2ykbhpafj",795,"5.csv","","null","resources/maskTrios/L2BB.jpg","null","",NA,NA,NA,NA,""
"image-keyboard-response",463,424341,"0.0-3.150-2.150","y7c1rc2ykbhpafj",795,"5.csv","","null","resources/images/fishbone.png","null","",NA,NA,NA,NA,""
"image-keyboard-response",464,424631,"0.0-3.151-0.151","y7c1rc2ykbhpafj",795,"5.csv","","288.7000000178814","resources/trios/L1T4A3.jpg","38","restless",0.2,0.5,0.6,0.608183349719471,"false"
"image-keyboard-response",465,425040,"0.0-3.151-1.151","y7c1rc2ykbhpafj",795,"5.csv","","null","resources/maskTrios/BT4B.jpg","null","",NA,NA,NA,NA,""
"image-keyboard-response",466,426248,"0.0-3.151-2.151","y7c1rc2ykbhpafj",795,"5.csv","","null","resources/images/fishbone.png","null","",NA,NA,NA,NA,""
"image-keyboard-response",467,426541,"0.0-3.152-0.152","y7c1rc2ykbhpafj",795,"5.csv","","290.59999999403954","resources/trios/L1T1A3.jpg","37","restless",0.2,0.5,0.6,0.022376990578715,"true"
"image-keyboard-response",468,426952,"0.0-3.152-1.152","y7c1rc2ykbhpafj",795,"5.csv","","null","resources/maskTrios/L1BB.jpg","null","",NA,NA,NA,NA,""
"image-keyboard-response",469,428156,"0.0-3.152-2.152","y7c1rc2ykbhpafj",795,"5.csv","","null","resources/images/coin2.png","null","",NA,NA,NA,NA,""
"image-keyboard-response",470,428376,"0.0-3.153-0.153","y7c1rc2ykbhpafj",795,"5.csv","","217.39999997615814","resources/trios/L1T1A2.jpg","38","restless",0.2,0.5,0.6,0.549034472957374,"false"
"image-keyboard-response",471,428780,"0.0-3.153-1.153","y7c1rc2ykbhpafj",795,"5.csv","","null","resources/maskTrios/BT1B.jpg","null","",NA,NA,NA,NA,""
"image-keyboard-response",472,429992,"0.0-3.153-2.153","y7c1rc2ykbhpafj",795,"5.csv","","null","resources/images/fishbone.png","null","",NA,NA,NA,NA,""
"image-keyboard-response",473,430273,"0.0-3.154-0.154","y7c1rc2ykbhpafj",795,"5.csv","","278.69999998807907","resources/trios/L1T1A3.jpg","38","restless",0.2,0.5,0.6,0.0728189680266096,"true"
"image-keyboard-response",474,430688,"0.0-3.154-1.154","y7c1rc2ykbhpafj",795,"5.csv","","null","resources/maskTrios/BT1B.jpg","null","",NA,NA,NA,NA,""
"image-keyboard-response",475,431893,"0.0-3.154-2.154","y7c1rc2ykbhpafj",795,"5.csv","","null","resources/images/coin2.png","null","",NA,NA,NA,NA,""
"image-keyboard-response",476,432639,"0.0-3.155-0.155","y7c1rc2ykbhpafj",795,"5.csv","","743.3000000119209","resources/trios/L1T4A2.jpg","37","restless",0.2,0.5,0.6,0.405458127643979,"false"
"image-keyboard-response",477,433047,"0.0-3.155-1.155","y7c1rc2ykbhpafj",795,"5.csv","","null","resources/maskTrios/L1BB.jpg","null","",NA,NA,NA,NA,""
"image-keyboard-response",478,434255,"0.0-3.155-2.155","y7c1rc2ykbhpafj",795,"5.csv","","null","resources/images/fishbone.png","null","",NA,NA,NA,NA,""
"image-keyboard-response",479,434702,"0.0-3.156-0.156","y7c1rc2ykbhpafj",795,"5.csv","","444.5","resources/trios/L1T1A3.jpg","38","restless",0.2,0.4,0.6,0.712298217626368,"false"
"image-keyboard-response",480,435107,"0.0-3.156-1.156","y7c1rc2ykbhpafj",795,"5.csv","","null","resources/maskTrios/BT1B.jpg","null","",NA,NA,NA,NA,""
"image-keyboard-response",481,436318,"0.0-3.156-2.156","y7c1rc2ykbhpafj",795,"5.csv","","null","resources/images/fishbone.png","null","",NA,NA,NA,NA,""
"image-keyboard-response",482,443182,"0.0-3.157-0.157","y7c1rc2ykbhpafj",795,"5.csv","","6863.300000011921","resources/trios/L2T4A3.jpg","37","restless",0.2,0.4,0.7,0.997583957723645,"false"
"image-keyboard-response",483,443588,"0.0-3.157-1.157","y7c1rc2ykbhpafj",795,"5.csv","","null","resources/maskTrios/L2BB.jpg","null","",NA,NA,NA,NA,""
"image-keyboard-response",484,444799,"0.0-3.157-2.157","y7c1rc2ykbhpafj",795,"5.csv","","null","resources/images/fishbone.png","null","",NA,NA,NA,NA,""
"image-keyboard-response",485,445116,"0.0-3.158-0.158","y7c1rc2ykbhpafj",795,"5.csv","","315.19999998807907","resources/trios/L2T4A3.jpg","38","restless",0.2,0.4,0.7,0.00104099310535766,"true"
"image-keyboard-response",486,445526,"0.0-3.158-1.158","y7c1rc2ykbhpafj",795,"5.csv","","null","resources/maskTrios/BT4B.jpg","null","",NA,NA,NA,NA,""
"image-keyboard-response",487,446734,"0.0-3.158-2.158","y7c1rc2ykbhpafj",795,"5.csv","","null","resources/images/coin2.png","null","",NA,NA,NA,NA,""
"image-keyboard-response",488,447039,"0.0-3.159-0.159","y7c1rc2ykbhpafj",795,"5.csv","","302.59999999403954","resources/trios/L1T4A2.jpg","38","restless",0.2,0.4,0.7,0.420945564666913,"false"
"image-keyboard-response",489,447444,"0.0-3.159-1.159","y7c1rc2ykbhpafj",795,"5.csv","","null","resources/maskTrios/BT4B.jpg","null","",NA,NA,NA,NA,""
"image-keyboard-response",490,448652,"0.0-3.159-2.159","y7c1rc2ykbhpafj",795,"5.csv","","null","resources/images/fishbone.png","null","",NA,NA,NA,NA,""
"image-keyboard-response",491,448975,"0.0-3.160-0.160","y7c1rc2ykbhpafj",795,"5.csv","","320.69999998807907","resources/trios/L1T1A3.jpg","38","restless",0.3,0.4,0.7,0.7287072646082,"false"
"image-keyboard-response",492,449379,"0.0-3.160-1.160","y7c1rc2ykbhpafj",795,"5.csv","","null","resources/maskTrios/BT1B.jpg","null","",NA,NA,NA,NA,""
"image-keyboard-response",493,450587,"0.0-3.160-2.160","y7c1rc2ykbhpafj",795,"5.csv","","null","resources/images/fishbone.png","null","",NA,NA,NA,NA,""
"image-keyboard-response",494,450772,"0.0-3.161-0.161","y7c1rc2ykbhpafj",795,"5.csv","","183.19999998807907","resources/trios/L2T4A3.jpg","37","restless",0.3,0.4,0.8,0.782721389335992,"false"
"image-keyboard-response",495,451183,"0.0-3.161-1.161","y7c1rc2ykbhpafj",795,"5.csv","","null","resources/maskTrios/L2BB.jpg","null","",NA,NA,NA,NA,""
"image-keyboard-response",496,452388,"0.0-3.161-2.161","y7c1rc2ykbhpafj",795,"5.csv","","null","resources/images/fishbone.png","null","",NA,NA,NA,NA,""
"image-keyboard-response",497,452881,"0.0-3.162-0.162","y7c1rc2ykbhpafj",795,"5.csv","","490.7000000178814","resources/trios/L2T1A2.jpg","37","restless",0.3,0.4,0.8,0.243078354301106,"true"
"image-keyboard-response",498,453290,"0.0-3.162-1.162","y7c1rc2ykbhpafj",795,"5.csv","","null","resources/maskTrios/L2BB.jpg","null","",NA,NA,NA,NA,""
"image-keyboard-response",499,454502,"0.0-3.162-2.162","y7c1rc2ykbhpafj",795,"5.csv","","null","resources/images/coin2.png","null","",NA,NA,NA,NA,""
"image-keyboard-response",500,454722,"0.0-3.163-0.163","y7c1rc2ykbhpafj",795,"5.csv","","216.90000000596046","resources/trios/L1T1A2.jpg","37","restless",0.3,0.4,0.9,0.786003660930706,"false"
"image-keyboard-response",501,455131,"0.0-3.163-1.163","y7c1rc2ykbhpafj",795,"5.csv","","null","resources/maskTrios/L1BB.jpg","null","",NA,NA,NA,NA,""
"image-keyboard-response",502,456342,"0.0-3.163-2.163","y7c1rc2ykbhpafj",795,"5.csv","","null","resources/images/fishbone.png","null","",NA,NA,NA,NA,""
"image-keyboard-response",503,456583,"0.0-3.164-0.164","y7c1rc2ykbhpafj",795,"5.csv","","238.19999998807907","resources/trios/L1T4A3.jpg","37","restless",0.3,0.4,0.9,0.707021526274771,"false"
"image-keyboard-response",504,456998,"0.0-3.164-1.164","y7c1rc2ykbhpafj",795,"5.csv","","null","resources/maskTrios/L1BB.jpg","null","",NA,NA,NA,NA,""
"image-keyboard-response",505,458206,"0.0-3.164-2.164","y7c1rc2ykbhpafj",795,"5.csv","","null","resources/images/fishbone.png","null","",NA,NA,NA,NA,""
"image-keyboard-response",506,458478,"0.0-3.165-0.165","y7c1rc2ykbhpafj",795,"5.csv","","269","resources/trios/L2T1A2.jpg","37","restless",0.3,0.4,0.9,0.940201484657169,"false"
"image-keyboard-response",507,458882,"0.0-3.165-1.165","y7c1rc2ykbhpafj",795,"5.csv","","null","resources/maskTrios/L2BB.jpg","null","",NA,NA,NA,NA,""
"image-keyboard-response",508,460090,"0.0-3.165-2.165","y7c1rc2ykbhpafj",795,"5.csv","","null","resources/images/fishbone.png","null","",NA,NA,NA,NA,""
"image-keyboard-response",509,460366,"0.0-3.166-0.166","y7c1rc2ykbhpafj",795,"5.csv","","273","resources/trios/L1T4A2.jpg","37","restless",0.3,0.4,0.9,0.315882753531353,"false"
"image-keyboard-response",510,460770,"0.0-3.166-1.166","y7c1rc2ykbhpafj",795,"5.csv","","null","resources/maskTrios/L1BB.jpg","null","",NA,NA,NA,NA,""
"image-keyboard-response",511,461982,"0.0-3.166-2.166","y7c1rc2ykbhpafj",795,"5.csv","","null","resources/images/fishbone.png","null","",NA,NA,NA,NA,""
"image-keyboard-response",512,462111,"0.0-3.167-0.167","y7c1rc2ykbhpafj",795,"5.csv","","127","resources/trios/L2T1A3.jpg","38","restless",0.2,0.4,0.9,0.733560943785976,"false"
"image-keyboard-response",513,462526,"0.0-3.167-1.167","y7c1rc2ykbhpafj",795,"5.csv","","null","resources/maskTrios/BT1B.jpg","null","",NA,NA,NA,NA,""
"image-keyboard-response",514,463733,"0.0-3.167-2.167","y7c1rc2ykbhpafj",795,"5.csv","","null","resources/images/fishbone.png","null","",NA,NA,NA,NA,""
"image-keyboard-response",515,463824,"0.0-3.168-0.168","y7c1rc2ykbhpafj",795,"5.csv","","88.80000001192093","resources/trios/L2T1A2.jpg","37","restless",0.2,0.4,0.9,0.471146608091438,"false"
"image-keyboard-response",516,464238,"0.0-3.168-1.168","y7c1rc2ykbhpafj",795,"5.csv","","null","resources/maskTrios/L2BB.jpg","null","",NA,NA,NA,NA,""
"image-keyboard-response",517,465444,"0.0-3.168-2.168","y7c1rc2ykbhpafj",795,"5.csv","","null","resources/images/fishbone.png","null","",NA,NA,NA,NA,""
"image-keyboard-response",518,465644,"0.0-3.169-0.169","y7c1rc2ykbhpafj",795,"5.csv","","197.59999999403954","resources/trios/L1T4A2.jpg","38","restless",0.2,0.4,0.9,0.829453065234397,"false"
"image-keyboard-response",519,466054,"0.0-3.169-1.169","y7c1rc2ykbhpafj",795,"5.csv","","null","resources/maskTrios/BT4B.jpg","null","",NA,NA,NA,NA,""
"image-keyboard-response",520,467258,"0.0-3.169-2.169","y7c1rc2ykbhpafj",795,"5.csv","","null","resources/images/fishbone.png","null","",NA,NA,NA,NA,""
"image-keyboard-response",521,467398,"0.0-3.170-0.170","y7c1rc2ykbhpafj",795,"5.csv","","138.2999999821186","resources/trios/L2T1A3.jpg","37","restless",0.2,0.4,0.9,0.456193970770625,"false"
"image-keyboard-response",522,467806,"0.0-3.170-1.170","y7c1rc2ykbhpafj",795,"5.csv","","null","resources/maskTrios/L2BB.jpg","null","",NA,NA,NA,NA,""
"image-keyboard-response",523,469010,"0.0-3.170-2.170","y7c1rc2ykbhpafj",795,"5.csv","","null","resources/images/fishbone.png","null","",NA,NA,NA,NA,""
"image-keyboard-response",524,469722,"0.0-3.171-0.171","y7c1rc2ykbhpafj",795,"5.csv","","710.2000000178814","resources/trios/L1T1A3.jpg","38","restless",0.2,0.4,0.9,0.147904762066567,"true"
"image-keyboard-response",525,470133,"0.0-3.171-1.171","y7c1rc2ykbhpafj",795,"5.csv","","null","resources/maskTrios/BT1B.jpg","null","",NA,NA,NA,NA,""
"image-keyboard-response",526,471342,"0.0-3.171-2.171","y7c1rc2ykbhpafj",795,"5.csv","","null","resources/images/coin2.png","null","",NA,NA,NA,NA,""
"image-keyboard-response",527,471714,"0.0-3.172-0.172","y7c1rc2ykbhpafj",795,"5.csv","","370.09999999403954","resources/trios/L2T4A3.jpg","38","restless",0.2,0.4,0.9,0.658991468039314,"false"
"image-keyboard-response",528,472121,"0.0-3.172-1.172","y7c1rc2ykbhpafj",795,"5.csv","","null","resources/maskTrios/BT4B.jpg","null","",NA,NA,NA,NA,""
"image-keyboard-response",529,473333,"0.0-3.172-2.172","y7c1rc2ykbhpafj",795,"5.csv","","null","resources/images/fishbone.png","null","",NA,NA,NA,NA,""
"image-keyboard-response",530,473733,"0.0-3.173-0.173","y7c1rc2ykbhpafj",795,"5.csv","","397.40000000596046","resources/trios/L2T4A3.jpg","37","restless",0.2,0.5,0.9,0.907392248014259,"false"
"image-keyboard-response",531,474141,"0.0-3.173-1.173","y7c1rc2ykbhpafj",795,"5.csv","","null","resources/maskTrios/L2BB.jpg","null","",NA,NA,NA,NA,""
"image-keyboard-response",532,475349,"0.0-3.173-2.173","y7c1rc2ykbhpafj",795,"5.csv","","null","resources/images/fishbone.png","null","",NA,NA,NA,NA,""
"image-keyboard-response",533,476105,"0.0-3.174-0.174","y7c1rc2ykbhpafj",795,"5.csv","","753.5","resources/trios/L1T4A3.jpg","38","restless",0.2,0.5,0.8,0.263241737964935,"true"
"image-keyboard-response",534,476517,"0.0-3.174-1.174","y7c1rc2ykbhpafj",795,"5.csv","","null","resources/maskTrios/BT4B.jpg","null","",NA,NA,NA,NA,""
"image-keyboard-response",535,477725,"0.0-3.174-2.174","y7c1rc2ykbhpafj",795,"5.csv","","null","resources/images/coin2.png","null","",NA,NA,NA,NA,""
"image-keyboard-response",536,478128,"0.0-3.175-0.175","y7c1rc2ykbhpafj",795,"5.csv","","400.09999999403954","resources/trios/L2T1A3.jpg","38","restless",0.2,0.5,0.8,0.317064623245967,"true"
"image-keyboard-response",537,478537,"0.0-3.175-1.175","y7c1rc2ykbhpafj",795,"5.csv","","null","resources/maskTrios/BT1B.jpg","null","",NA,NA,NA,NA,""
"image-keyboard-response",538,479749,"0.0-3.175-2.175","y7c1rc2ykbhpafj",795,"5.csv","","null","resources/images/coin2.png","null","",NA,NA,NA,NA,""
"image-keyboard-response",539,480076,"0.0-3.176-0.176","y7c1rc2ykbhpafj",795,"5.csv","","324.40000000596046","resources/trios/L2T1A2.jpg","38","restless",0.2,0.4,0.8,0.947947059011302,"false"
"image-keyboard-response",540,480484,"0.0-3.176-1.176","y7c1rc2ykbhpafj",795,"5.csv","","null","resources/maskTrios/BT1B.jpg","null","",NA,NA,NA,NA,""
"image-keyboard-response",541,481689,"0.0-3.176-2.176","y7c1rc2ykbhpafj",795,"5.csv","","null","resources/images/fishbone.png","null","",NA,NA,NA,NA,""
"image-keyboard-response",542,481756,"0.0-3.177-0.177","y7c1rc2ykbhpafj",795,"5.csv","","64.7000000178814","resources/trios/L1T4A3.jpg","37","restless",0.2,0.4,0.8,0.423429682409123,"false"
"image-keyboard-response",543,482165,"0.0-3.177-1.177","y7c1rc2ykbhpafj",795,"5.csv","","null","resources/maskTrios/L1BB.jpg","null","",NA,NA,NA,NA,""
"image-keyboard-response",544,483369,"0.0-3.177-2.177","y7c1rc2ykbhpafj",795,"5.csv","","null","resources/images/fishbone.png","null","",NA,NA,NA,NA,""
"image-keyboard-response",545,483634,"0.0-3.178-0.178","y7c1rc2ykbhpafj",795,"5.csv","","263.2000000178814","resources/trios/L1T1A3.jpg","38","restless",0.3,0.4,0.8,0.68915647808633,"false"
"image-keyboard-response",546,484045,"0.0-3.178-1.178","y7c1rc2ykbhpafj",795,"5.csv","","null","resources/maskTrios/BT1B.jpg","null","",NA,NA,NA,NA,""
"image-keyboard-response",547,485253,"0.0-3.178-2.178","y7c1rc2ykbhpafj",795,"5.csv","","null","resources/images/fishbone.png","null","",NA,NA,NA,NA,""
"image-keyboard-response",548,485367,"0.0-3.179-0.179","y7c1rc2ykbhpafj",795,"5.csv","","111.7000000178814","resources/trios/L1T1A3.jpg","37","restless",0.3,0.4,0.7,0.525909111241188,"false"
"image-keyboard-response",549,485780,"0.0-3.179-1.179","y7c1rc2ykbhpafj",795,"5.csv","","null","resources/maskTrios/L1BB.jpg","null","",NA,NA,NA,NA,""
"image-keyboard-response",550,486989,"0.0-3.179-2.179","y7c1rc2ykbhpafj",795,"5.csv","","null","resources/images/fishbone.png","null","",NA,NA,NA,NA,""
"image-keyboard-response",551,487368,"0.0-3.180-0.180","y7c1rc2ykbhpafj",795,"5.csv","","377.2999999821186","resources/trios/L1T4A2.jpg","37","restless",0.3,0.4,0.7,0.718323807377499,"false"
"image-keyboard-response",552,487781,"0.0-3.180-1.180","y7c1rc2ykbhpafj",795,"5.csv","","null","resources/maskTrios/L1BB.jpg","null","",NA,NA,NA,NA,""
"image-keyboard-response",553,488989,"0.0-3.180-2.180","y7c1rc2ykbhpafj",795,"5.csv","","null","resources/images/fishbone.png","null","",NA,NA,NA,NA,""
"image-keyboard-response",554,489225,"0.0-3.181-0.181","y7c1rc2ykbhpafj",795,"5.csv","","234.09999999403954","resources/trios/L2T4A2.jpg","39","restless",0.3,0.4,0.6,0.756152364990379,"false"
"image-keyboard-response",555,489633,"0.0-3.181-1.181","y7c1rc2ykbhpafj",795,"5.csv","","null","resources/maskTrios/BBA2.jpg","null","",NA,NA,NA,NA,""
"image-keyboard-response",556,490845,"0.0-3.181-2.181","y7c1rc2ykbhpafj",795,"5.csv","","null","resources/images/fishbone.png","null","",NA,NA,NA,NA,""
"image-keyboard-response",557,491185,"0.0-3.182-0.182","y7c1rc2ykbhpafj",795,"5.csv","","337.69999998807907","resources/trios/L1T4A3.jpg","38","restless",0.3,0.4,0.6,0.0738264126363026,"true"
"image-keyboard-response",558,491597,"0.0-3.182-1.182","y7c1rc2ykbhpafj",795,"5.csv","","null","resources/maskTrios/BT4B.jpg","null","",NA,NA,NA,NA,""
"image-keyboard-response",559,492802,"0.0-3.182-2.182","y7c1rc2ykbhpafj",795,"5.csv","","null","resources/images/coin2.png","null","",NA,NA,NA,NA,""
"image-keyboard-response",560,493125,"0.0-3.183-0.183","y7c1rc2ykbhpafj",795,"5.csv","","321.2000000178814","resources/trios/L2T4A2.jpg","38","restless",0.3,0.4,0.6,0.109901266347646,"true"
"image-keyboard-response",561,493532,"0.0-3.183-1.183","y7c1rc2ykbhpafj",795,"5.csv","","null","resources/maskTrios/BT4B.jpg","null","",NA,NA,NA,NA,""
"image-keyboard-response",562,494739,"0.0-3.183-2.183","y7c1rc2ykbhpafj",795,"5.csv","","null","resources/images/coin2.png","null","",NA,NA,NA,NA,""
"image-keyboard-response",563,495080,"0.0-3.184-0.184","y7c1rc2ykbhpafj",795,"5.csv","","338.90000000596046","resources/trios/L1T4A2.jpg","38","restless",0.3,0.4,0.6,0.654565515038602,"false"
"image-keyboard-response",564,495492,"0.0-3.184-1.184","y7c1rc2ykbhpafj",795,"5.csv","","null","resources/maskTrios/BT4B.jpg","null","",NA,NA,NA,NA,""
"image-keyboard-response",565,496696,"0.0-3.184-2.184","y7c1rc2ykbhpafj",795,"5.csv","","null","resources/images/fishbone.png","null","",NA,NA,NA,NA,""
"image-keyboard-response",566,496937,"0.0-3.185-0.185","y7c1rc2ykbhpafj",795,"5.csv","","239.40000000596046","resources/trios/L1T1A2.jpg","37","restless",0.3,0.5,0.6,0.695240910270541,"false"
"image-keyboard-response",567,497348,"0.0-3.185-1.185","y7c1rc2ykbhpafj",795,"5.csv","","null","resources/maskTrios/L1BB.jpg","null","",NA,NA,NA,NA,""
"image-keyboard-response",568,498556,"0.0-3.185-2.185","y7c1rc2ykbhpafj",795,"5.csv","","null","resources/images/fishbone.png","null","",NA,NA,NA,NA,""
"image-keyboard-response",569,499040,"0.0-3.186-0.186","y7c1rc2ykbhpafj",795,"5.csv","","481.40000000596046","resources/trios/L1T1A2.jpg","38","restless",0.3,0.5,0.6,0.358622981307004,"true"
"image-keyboard-response",570,499448,"0.0-3.186-1.186","y7c1rc2ykbhpafj",795,"5.csv","","null","resources/maskTrios/BT1B.jpg","null","",NA,NA,NA,NA,""
"image-keyboard-response",571,500660,"0.0-3.186-2.186","y7c1rc2ykbhpafj",795,"5.csv","","null","resources/images/coin2.png","null","",NA,NA,NA,NA,""
"image-keyboard-response",572,501004,"0.0-3.187-0.187","y7c1rc2ykbhpafj",795,"5.csv","","343.09999999403954","resources/trios/L1T4A3.jpg","38","restless",0.2,0.4,0.6,0.024834435282707,"true"
"image-keyboard-response",573,501412,"0.0-3.187-1.187","y7c1rc2ykbhpafj",795,"5.csv","","null","resources/maskTrios/BT4B.jpg","null","",NA,NA,NA,NA,""
"image-keyboard-response",574,502618,"0.0-3.187-2.187","y7c1rc2ykbhpafj",795,"5.csv","","null","resources/images/coin2.png","null","",NA,NA,NA,NA,""
"image-keyboard-response",575,502939,"0.0-3.188-0.188","y7c1rc2ykbhpafj",795,"5.csv","","318.80000001192093","resources/trios/L1T1A3.jpg","38","restless",0.2,0.4,0.6,0.79899222083452,"false"
"image-keyboard-response",576,503348,"0.0-3.188-1.188","y7c1rc2ykbhpafj",795,"5.csv","","null","resources/maskTrios/BT1B.jpg","null","",NA,NA,NA,NA,""
"image-keyboard-response",577,504552,"0.0-3.188-2.188","y7c1rc2ykbhpafj",795,"5.csv","","null","resources/images/fishbone.png","null","",NA,NA,NA,NA,""
"image-keyboard-response",578,504885,"0.0-3.189-0.189","y7c1rc2ykbhpafj",795,"5.csv","","330.7999999821186","resources/trios/L2T1A3.jpg","37","restless",0.2,0.4,0.6,0.93015467363711,"false"
"image-keyboard-response",579,505299,"0.0-3.189-1.189","y7c1rc2ykbhpafj",795,"5.csv","","null","resources/maskTrios/L2BB.jpg","null","",NA,NA,NA,NA,""
"image-keyboard-response",580,506507,"0.0-3.189-2.189","y7c1rc2ykbhpafj",795,"5.csv","","null","resources/images/fishbone.png","null","",NA,NA,NA,NA,""
"image-keyboard-response",581,506773,"0.0-3.190-0.190","y7c1rc2ykbhpafj",795,"5.csv","","264.2000000178814","resources/trios/L2T1A3.jpg","37","restless",0.2,0.5,0.6,0.856252308769495,"false"
"image-keyboard-response",582,507183,"0.0-3.190-1.190","y7c1rc2ykbhpafj",795,"5.csv","","null","resources/maskTrios/L2BB.jpg","null","",NA,NA,NA,NA,""
"image-keyboard-response",583,508392,"0.0-3.190-2.190","y7c1rc2ykbhpafj",795,"5.csv","","null","resources/images/fishbone.png","null","",NA,NA,NA,NA,""
"image-keyboard-response",584,508533,"0.0-3.191-0.191","y7c1rc2ykbhpafj",795,"5.csv","","138.30000001192093","resources/trios/L1T1A3.jpg","38","restless",0.2,0.5,0.6,0.108236147023138,"true"
"image-keyboard-response",585,508944,"0.0-3.191-1.191","y7c1rc2ykbhpafj",795,"5.csv","","null","resources/maskTrios/BT1B.jpg","null","",NA,NA,NA,NA,""
"image-keyboard-response",586,510154,"0.0-3.191-2.191","y7c1rc2ykbhpafj",795,"5.csv","","null","resources/images/coin2.png","null","",NA,NA,NA,NA,""
"image-keyboard-response",587,510161,"0.0-3.192-0.192","y7c1rc2ykbhpafj",795,"5.csv","","5","resources/trios/L1T1A2.jpg","38","restless",0.2,0.5,0.6,0.72610458881854,"false"
"image-keyboard-response",588,510567,"0.0-3.192-1.192","y7c1rc2ykbhpafj",795,"5.csv","","null","resources/maskTrios/BT1B.jpg","null","",NA,NA,NA,NA,""
"image-keyboard-response",589,511777,"0.0-3.192-2.192","y7c1rc2ykbhpafj",795,"5.csv","","null","resources/images/fishbone.png","null","",NA,NA,NA,NA,""
"image-keyboard-response",590,512014,"0.0-3.193-0.193","y7c1rc2ykbhpafj",795,"5.csv","","234.19999998807907","resources/trios/L1T1A2.jpg","37","restless",0.2,0.5,0.5,0.679402043951264,"false"
"image-keyboard-response",591,512428,"0.0-3.193-1.193","y7c1rc2ykbhpafj",795,"5.csv","","null","resources/maskTrios/L1BB.jpg","null","",NA,NA,NA,NA,""
"image-keyboard-response",592,513636,"0.0-3.193-2.193","y7c1rc2ykbhpafj",795,"5.csv","","null","resources/images/fishbone.png","null","",NA,NA,NA,NA,""
"image-keyboard-response",593,514154,"0.0-3.194-0.194","y7c1rc2ykbhpafj",795,"5.csv","","516.0999999940395","resources/trios/L1T1A3.jpg","38","restless",0.2,0.5,0.5,0.0633698555961524,"true"
"image-keyboard-response",594,514559,"0.0-3.194-1.194","y7c1rc2ykbhpafj",795,"5.csv","","null","resources/maskTrios/BT1B.jpg","null","",NA,NA,NA,NA,""
"image-keyboard-response",595,515767,"0.0-3.194-2.194","y7c1rc2ykbhpafj",795,"5.csv","","null","resources/images/coin2.png","null","",NA,NA,NA,NA,""
"image-keyboard-response",596,516110,"0.0-3.195-0.195","y7c1rc2ykbhpafj",795,"5.csv","","340","resources/trios/L2T4A3.jpg","38","restless",0.2,0.5,0.5,0.573037745877381,"false"
"image-keyboard-response",597,516523,"0.0-3.195-1.195","y7c1rc2ykbhpafj",795,"5.csv","","null","resources/maskTrios/BT4B.jpg","null","",NA,NA,NA,NA,""
"image-keyboard-response",598,517731,"0.0-3.195-2.195","y7c1rc2ykbhpafj",795,"5.csv","","null","resources/images/fishbone.png","null","",NA,NA,NA,NA,""
"image-keyboard-response",599,517922,"0.0-3.196-0.196","y7c1rc2ykbhpafj",795,"5.csv","","188.59999999403954","resources/trios/L2T4A2.jpg","37","restless",0.2,0.5,0.5,0.472695506811454,"false"
"image-keyboard-response",600,518331,"0.0-3.196-1.196","y7c1rc2ykbhpafj",795,"5.csv","","null","resources/maskTrios/L2BB.jpg","null","",NA,NA,NA,NA,""
"image-keyboard-response",601,519539,"0.0-3.196-2.196","y7c1rc2ykbhpafj",795,"5.csv","","null","resources/images/fishbone.png","null","",NA,NA,NA,NA,""
"image-keyboard-response",602,519814,"0.0-3.197-0.197","y7c1rc2ykbhpafj",795,"5.csv","","272.7999999821186","resources/trios/L2T4A2.jpg","38","restless",0.2,0.5,0.5,0.188954344058528,"true"
"image-keyboard-response",603,520224,"0.0-3.197-1.197","y7c1rc2ykbhpafj",795,"5.csv","","null","resources/maskTrios/BT4B.jpg","null","",NA,NA,NA,NA,""
"image-keyboard-response",604,521435,"0.0-3.197-2.197","y7c1rc2ykbhpafj",795,"5.csv","","null","resources/images/coin2.png","null","",NA,NA,NA,NA,""
"image-keyboard-response",605,521496,"0.0-3.198-0.198","y7c1rc2ykbhpafj",795,"5.csv","","59.099999994039536","resources/trios/L1T1A3.jpg","38","restless",0.2,0.5,0.5,0.749157876977416,"false"
"image-keyboard-response",606,521907,"0.0-3.198-1.198","y7c1rc2ykbhpafj",795,"5.csv","","null","resources/maskTrios/BT1B.jpg","null","",NA,NA,NA,NA,""
"image-keyboard-response",607,523111,"0.0-3.198-2.198","y7c1rc2ykbhpafj",795,"5.csv","","null","resources/images/fishbone.png","null","",NA,NA,NA,NA,""
"image-keyboard-response",608,523529,"0.0-3.199-0.199","y7c1rc2ykbhpafj",795,"5.csv","","415.40000000596046","resources/trios/L2T1A2.jpg","37","restless",0.2,0.5,0.5,0.0269944969171831,"true"
"image-keyboard-response",609,523937,"0.0-3.199-1.199","y7c1rc2ykbhpafj",795,"5.csv","","null","resources/maskTrios/L2BB.jpg","null","",NA,NA,NA,NA,""
"image-keyboard-response",610,525147,"0.0-3.199-2.199","y7c1rc2ykbhpafj",795,"5.csv","","null","resources/images/coin2.png","null","",NA,NA,NA,NA,""
"image-keyboard-response",611,525425,"0.0-3.200-0.200","y7c1rc2ykbhpafj",795,"5.csv","","276.09999999403954","resources/trios/L1T4A2.jpg","37","restless",0.2,0.5,0.5,0.296543290867988,"false"
"image-keyboard-response",612,525835,"0.0-3.200-1.200","y7c1rc2ykbhpafj",795,"5.csv","","null","resources/maskTrios/L1BB.jpg","null","",NA,NA,NA,NA,""
