"trial_type","trial_index","time_elapsed","internal_node_id","subject","participantCode","walkNumber","success","rt","stimulus","key_press","test_part","leftProb","midProb","rightProb","generatedNum","correct"
"pavlovia",0,1066,"0.0-0.0","fc60n7tg2jdxje4",784,"60.csv","","","","","",NA,NA,NA,NA,""
"fullscreen",1,3684,"0.0-1.0","fc60n7tg2jdxje4",784,"60.csv","true","","","","",NA,NA,NA,NA,""
"html-keyboard-response",2,10248,"0.0-2.0-0.0","fc60n7tg2jdxje4",784,"60.csv","","6563","<p><font size='6'>Arrrgh!</p></font><p>Can you be the best pirate? Try to find lots of gold! But beware, some islands have more gold than others, and over time, the island with the most gold may change. Can YOU figure it out? </p><font size='6'>GOOD LUCK, CAPTAIN!!!</font><p>Press any key to begin</p>","32","",NA,NA,NA,NA,""
"image-keyboard-response",3,13251,"0.0-2.0-1.0","fc60n7tg2jdxje4",784,"60.csv","","null","resources/image_sets/111.png","null","",NA,NA,NA,NA,""
"image-keyboard-response",4,20161,"0.0-2.0-2.0","fc60n7tg2jdxje4",784,"60.csv","","6909","resources/image_sets/left_highlight.png","37","",NA,NA,NA,NA,""
"image-keyboard-response",5,21553,"0.0-2.0-3.0","fc60n7tg2jdxje4",784,"60.csv","","1391","resources/image_sets/mid_highlight.png","38","",NA,NA,NA,NA,""
"image-keyboard-response",6,22403,"0.0-2.0-4.0","fc60n7tg2jdxje4",784,"60.csv","","849","resources/image_sets/right_highlight.png","39","",NA,NA,NA,NA,""
"image-keyboard-response",7,29707,"0.0-2.0-5.0","fc60n7tg2jdxje4",784,"60.csv","","7303.000000000007","resources/image_sets/111.png","13","",NA,NA,NA,NA,""
"image-keyboard-response",8,31790,"0.0-2.0-6.0","fc60n7tg2jdxje4",784,"60.csv","","2082","resources/images/coin2.png","13","",NA,NA,NA,NA,""
"image-keyboard-response",9,33461,"0.0-2.0-7.0","fc60n7tg2jdxje4",784,"60.csv","","1670","resources/images/fishbone.png","13","",NA,NA,NA,NA,""
"html-keyboard-response",10,39222,"0.0-2.0-8.0","fc60n7tg2jdxje4",784,"60.csv","","5759","<p>Your first journey will be a long one, but you will get a well deserved break at the end</p><p>After the break you will have four more journeys, but each will be much shorter than the first, and you will have breaks in between each</p><p>Press Enter to begin</p>","13","",NA,NA,NA,NA,""
"image-keyboard-response",11,41312,"0.0-3.0-0.0","fc60n7tg2jdxje4",784,"60.csv","","2088","resources/trios/L2T1A3.jpg","38","restless",0.7,0.9,0.3,0.0118145387963784,"true"
"image-keyboard-response",12,41714,"0.0-3.0-1.0","fc60n7tg2jdxje4",784,"60.csv","","null","resources/maskTrios/BT1B.jpg","null","",NA,NA,NA,NA,""
"image-keyboard-response",13,42918,"0.0-3.0-2.0","fc60n7tg2jdxje4",784,"60.csv","","null","resources/images/coin2.png","null","",NA,NA,NA,NA,""
"image-keyboard-response",14,44090,"0.0-3.1-0.1","fc60n7tg2jdxje4",784,"60.csv","","1170","resources/trios/L1T1A1.jpg","38","restless",0.7,0.9,0.3,0.97999326646668,"false"
"image-keyboard-response",15,44492,"0.0-3.1-1.1","fc60n7tg2jdxje4",784,"60.csv","","null","resources/maskTrios/BT1B.jpg","null","",NA,NA,NA,NA,""
"image-keyboard-response",16,45694,"0.0-3.1-2.1","fc60n7tg2jdxje4",784,"60.csv","","null","resources/images/fishbone.png","null","",NA,NA,NA,NA,""
"image-keyboard-response",17,48368,"0.0-3.2-0.2","fc60n7tg2jdxje4",784,"60.csv","","2672.9999999999927","resources/trios/L2T2A3.jpg","38","restless",0.7,0.9,0.3,0.0477450732613202,"true"
"image-keyboard-response",18,48770,"0.0-3.2-1.2","fc60n7tg2jdxje4",784,"60.csv","","null","resources/maskTrios/BT2B.jpg","null","",NA,NA,NA,NA,""
"image-keyboard-response",19,49973,"0.0-3.2-2.2","fc60n7tg2jdxje4",784,"60.csv","","null","resources/images/coin2.png","null","",NA,NA,NA,NA,""
"image-keyboard-response",20,53055,"0.0-3.3-0.3","fc60n7tg2jdxje4",784,"60.csv","","3077","resources/trios/L2T2A3.jpg","38","restless",0.7,0.9,0.3,0.722247436477298,"true"
"image-keyboard-response",21,53458,"0.0-3.3-1.3","fc60n7tg2jdxje4",784,"60.csv","","null","resources/maskTrios/BT2B.jpg","null","",NA,NA,NA,NA,""
"image-keyboard-response",22,54660,"0.0-3.3-2.3","fc60n7tg2jdxje4",784,"60.csv","","null","resources/images/coin2.png","null","",NA,NA,NA,NA,""
"image-keyboard-response",23,55571,"0.0-3.4-0.4","fc60n7tg2jdxje4",784,"60.csv","","909","resources/trios/L2T2A1.jpg","38","restless",0.8,0.9,0.4,0.903964091690181,"false"
"image-keyboard-response",24,55973,"0.0-3.4-1.4","fc60n7tg2jdxje4",784,"60.csv","","null","resources/maskTrios/BT2B.jpg","null","",NA,NA,NA,NA,""
"image-keyboard-response",25,57175,"0.0-3.4-2.4","fc60n7tg2jdxje4",784,"60.csv","","null","resources/images/fishbone.png","null","",NA,NA,NA,NA,""
"image-keyboard-response",26,57863,"0.0-3.5-0.5","fc60n7tg2jdxje4",784,"60.csv","","686.9999999999854","resources/trios/L2T1A3.jpg","38","restless",0.8,0.9,0.4,0.366099995476696,"true"
"image-keyboard-response",27,58264,"0.0-3.5-1.5","fc60n7tg2jdxje4",784,"60.csv","","null","resources/maskTrios/BT1B.jpg","null","",NA,NA,NA,NA,""
"image-keyboard-response",28,59467,"0.0-3.5-2.5","fc60n7tg2jdxje4",784,"60.csv","","null","resources/images/coin2.png","null","",NA,NA,NA,NA,""
"image-keyboard-response",29,60710,"0.0-3.6-0.6","fc60n7tg2jdxje4",784,"60.csv","","1243","resources/trios/L2T1A3.jpg","38","restless",0.9,0.8,0.4,0.145367528072478,"true"
"image-keyboard-response",30,61112,"0.0-3.6-1.6","fc60n7tg2jdxje4",784,"60.csv","","null","resources/maskTrios/BT1B.jpg","null","",NA,NA,NA,NA,""
"image-keyboard-response",31,62313,"0.0-3.6-2.6","fc60n7tg2jdxje4",784,"60.csv","","null","resources/images/coin2.png","null","",NA,NA,NA,NA,""
"image-keyboard-response",32,63506,"0.0-3.7-0.7","fc60n7tg2jdxje4",784,"60.csv","","1191","resources/trios/L1T1A3.jpg","37","restless",0.9,0.8,0.4,0.42593930507845,"true"
"image-keyboard-response",33,63908,"0.0-3.7-1.7","fc60n7tg2jdxje4",784,"60.csv","","null","resources/maskTrios/L1BB.jpg","null","",NA,NA,NA,NA,""
"image-keyboard-response",34,65111,"0.0-3.7-2.7","fc60n7tg2jdxje4",784,"60.csv","","null","resources/images/coin2.png","null","",NA,NA,NA,NA,""
"image-keyboard-response",35,67360,"0.0-3.8-0.8","fc60n7tg2jdxje4",784,"60.csv","","2247","resources/trios/L2T2A3.jpg","38","restless",0.9,0.8,0.4,0.790882909512851,"true"
"image-keyboard-response",36,67761,"0.0-3.8-1.8","fc60n7tg2jdxje4",784,"60.csv","","null","resources/maskTrios/BT2B.jpg","null","",NA,NA,NA,NA,""
"image-keyboard-response",37,68964,"0.0-3.8-2.8","fc60n7tg2jdxje4",784,"60.csv","","null","resources/images/coin2.png","null","",NA,NA,NA,NA,""
"image-keyboard-response",38,69456,"0.0-3.9-0.9","fc60n7tg2jdxje4",784,"60.csv","","490","resources/trios/L2T1A1.jpg","38","restless",0.9,0.8,0.4,0.818498637895925,"false"
"image-keyboard-response",39,69858,"0.0-3.9-1.9","fc60n7tg2jdxje4",784,"60.csv","","null","resources/maskTrios/BT1B.jpg","null","",NA,NA,NA,NA,""
"image-keyboard-response",40,71061,"0.0-3.9-2.9","fc60n7tg2jdxje4",784,"60.csv","","null","resources/images/fishbone.png","null","",NA,NA,NA,NA,""
"image-keyboard-response",41,71940,"0.0-3.10-0.10","fc60n7tg2jdxje4",784,"60.csv","","876.9999999999854","resources/trios/L2T2A1.jpg","38","restless",0.9,0.8,0.4,0.892844263689211,"false"
"image-keyboard-response",42,72342,"0.0-3.10-1.10","fc60n7tg2jdxje4",784,"60.csv","","null","resources/maskTrios/BT2B.jpg","null","",NA,NA,NA,NA,""
"image-keyboard-response",43,73544,"0.0-3.10-2.10","fc60n7tg2jdxje4",784,"60.csv","","null","resources/images/fishbone.png","null","",NA,NA,NA,NA,""
"image-keyboard-response",44,74060,"0.0-3.11-0.11","fc60n7tg2jdxje4",784,"60.csv","","515","resources/trios/L1T2A3.jpg","37","restless",0.9,0.8,0.4,0.552737267807576,"true"
"image-keyboard-response",45,74463,"0.0-3.11-1.11","fc60n7tg2jdxje4",784,"60.csv","","null","resources/maskTrios/L1BB.jpg","null","",NA,NA,NA,NA,""
"image-keyboard-response",46,75665,"0.0-3.11-2.11","fc60n7tg2jdxje4",784,"60.csv","","null","resources/images/coin2.png","null","",NA,NA,NA,NA,""
"image-keyboard-response",47,76065,"0.0-3.12-0.12","fc60n7tg2jdxje4",784,"60.csv","","397.99999999998545","resources/trios/L2T2A3.jpg","37","restless",0.8,0.8,0.4,0.536780393690223,"true"
"image-keyboard-response",48,76467,"0.0-3.12-1.12","fc60n7tg2jdxje4",784,"60.csv","","null","resources/maskTrios/L2BB.jpg","null","",NA,NA,NA,NA,""
"image-keyboard-response",49,77670,"0.0-3.12-2.12","fc60n7tg2jdxje4",784,"60.csv","","null","resources/images/coin2.png","null","",NA,NA,NA,NA,""
"image-keyboard-response",50,77961,"0.0-3.13-0.13","fc60n7tg2jdxje4",784,"60.csv","","290","resources/trios/L1T1A3.jpg","37","restless",0.8,0.8,0.4,0.0533634730418797,"true"
"image-keyboard-response",51,78364,"0.0-3.13-1.13","fc60n7tg2jdxje4",784,"60.csv","","null","resources/maskTrios/L1BB.jpg","null","",NA,NA,NA,NA,""
"image-keyboard-response",52,79566,"0.0-3.13-2.13","fc60n7tg2jdxje4",784,"60.csv","","null","resources/images/coin2.png","null","",NA,NA,NA,NA,""
"image-keyboard-response",53,79875,"0.0-3.14-0.14","fc60n7tg2jdxje4",784,"60.csv","","308","resources/trios/L2T2A3.jpg","37","restless",0.7,0.8,0.5,0.637652607123122,"true"
"image-keyboard-response",54,80277,"0.0-3.14-1.14","fc60n7tg2jdxje4",784,"60.csv","","null","resources/maskTrios/L2BB.jpg","null","",NA,NA,NA,NA,""
"image-keyboard-response",55,81480,"0.0-3.14-2.14","fc60n7tg2jdxje4",784,"60.csv","","null","resources/images/coin2.png","null","",NA,NA,NA,NA,""
"image-keyboard-response",56,81812,"0.0-3.15-0.15","fc60n7tg2jdxje4",784,"60.csv","","331","resources/trios/L2T1A3.jpg","37","restless",0.7,0.8,0.5,0.81497438630558,"false"
"image-keyboard-response",57,82214,"0.0-3.15-1.15","fc60n7tg2jdxje4",784,"60.csv","","null","resources/maskTrios/L2BB.jpg","null","",NA,NA,NA,NA,""
"image-keyboard-response",58,83417,"0.0-3.15-2.15","fc60n7tg2jdxje4",784,"60.csv","","null","resources/images/fishbone.png","null","",NA,NA,NA,NA,""
"image-keyboard-response",59,83797,"0.0-3.16-0.16","fc60n7tg2jdxje4",784,"60.csv","","379","resources/trios/L1T1A1.jpg","37","restless",0.7,0.8,0.5,0.291895661676654,"true"
"image-keyboard-response",60,84198,"0.0-3.16-1.16","fc60n7tg2jdxje4",784,"60.csv","","null","resources/maskTrios/L1BB.jpg","null","",NA,NA,NA,NA,""
"image-keyboard-response",61,85400,"0.0-3.16-2.16","fc60n7tg2jdxje4",784,"60.csv","","null","resources/images/coin2.png","null","",NA,NA,NA,NA,""
"image-keyboard-response",62,86607,"0.0-3.17-0.17","fc60n7tg2jdxje4",784,"60.csv","","1206","resources/trios/L1T2A1.jpg","37","restless",0.7,0.8,0.5,0.238875642182705,"true"
"image-keyboard-response",63,87010,"0.0-3.17-1.17","fc60n7tg2jdxje4",784,"60.csv","","null","resources/maskTrios/L1BB.jpg","null","",NA,NA,NA,NA,""
"image-keyboard-response",64,88212,"0.0-3.17-2.17","fc60n7tg2jdxje4",784,"60.csv","","null","resources/images/coin2.png","null","",NA,NA,NA,NA,""
"image-keyboard-response",65,91935,"0.0-3.18-0.18","fc60n7tg2jdxje4",784,"60.csv","","3721.0000000000146","resources/trios/L1T1A3.jpg","37","restless",0.7,0.8,0.5,0.184934420991023,"true"
"image-keyboard-response",66,92337,"0.0-3.18-1.18","fc60n7tg2jdxje4",784,"60.csv","","null","resources/maskTrios/L1BB.jpg","null","",NA,NA,NA,NA,""
"image-keyboard-response",67,93538,"0.0-3.18-2.18","fc60n7tg2jdxje4",784,"60.csv","","null","resources/images/coin2.png","null","",NA,NA,NA,NA,""
"image-keyboard-response",68,93984,"0.0-3.19-0.19","fc60n7tg2jdxje4",784,"60.csv","","444","resources/trios/L2T1A1.jpg","38","restless",0.6,0.8,0.5,0.114906938659864,"true"
"image-keyboard-response",69,94387,"0.0-3.19-1.19","fc60n7tg2jdxje4",784,"60.csv","","null","resources/maskTrios/BT1B.jpg","null","",NA,NA,NA,NA,""
"image-keyboard-response",70,95589,"0.0-3.19-2.19","fc60n7tg2jdxje4",784,"60.csv","","null","resources/images/coin2.png","null","",NA,NA,NA,NA,""
"image-keyboard-response",71,96601,"0.0-3.20-0.20","fc60n7tg2jdxje4",784,"60.csv","","1010.9999999999854","resources/trios/L2T1A3.jpg","38","restless",0.6,0.8,0.5,0.988788584170295,"false"
"image-keyboard-response",72,97004,"0.0-3.20-1.20","fc60n7tg2jdxje4",784,"60.csv","","null","resources/maskTrios/BT1B.jpg","null","",NA,NA,NA,NA,""
"image-keyboard-response",73,98206,"0.0-3.20-2.20","fc60n7tg2jdxje4",784,"60.csv","","null","resources/images/fishbone.png","null","",NA,NA,NA,NA,""
"image-keyboard-response",74,98692,"0.0-3.21-0.21","fc60n7tg2jdxje4",784,"60.csv","","485","resources/trios/L2T1A1.jpg","37","restless",0.6,0.8,0.5,0.930444852777825,"false"
"image-keyboard-response",75,99095,"0.0-3.21-1.21","fc60n7tg2jdxje4",784,"60.csv","","null","resources/maskTrios/L2BB.jpg","null","",NA,NA,NA,NA,""
"image-keyboard-response",76,100297,"0.0-3.21-2.21","fc60n7tg2jdxje4",784,"60.csv","","null","resources/images/fishbone.png","null","",NA,NA,NA,NA,""
"image-keyboard-response",77,100616,"0.0-3.22-0.22","fc60n7tg2jdxje4",784,"60.csv","","317.99999999998545","resources/trios/L2T2A1.jpg","37","restless",0.6,0.8,0.5,0.587755914947567,"true"
"image-keyboard-response",78,101019,"0.0-3.22-1.22","fc60n7tg2jdxje4",784,"60.csv","","null","resources/maskTrios/L2BB.jpg","null","",NA,NA,NA,NA,""
"image-keyboard-response",79,102221,"0.0-3.22-2.22","fc60n7tg2jdxje4",784,"60.csv","","null","resources/images/coin2.png","null","",NA,NA,NA,NA,""
"image-keyboard-response",80,102739,"0.0-3.23-0.23","fc60n7tg2jdxje4",784,"60.csv","","517","resources/trios/L2T1A1.jpg","37","restless",0.6,0.7,0.5,0.336207681011878,"true"
"image-keyboard-response",81,103141,"0.0-3.23-1.23","fc60n7tg2jdxje4",784,"60.csv","","null","resources/maskTrios/L2BB.jpg","null","",NA,NA,NA,NA,""
"image-keyboard-response",82,104344,"0.0-3.23-2.23","fc60n7tg2jdxje4",784,"60.csv","","null","resources/images/coin2.png","null","",NA,NA,NA,NA,""
"image-keyboard-response",83,105783,"0.0-3.24-0.24","fc60n7tg2jdxje4",784,"60.csv","","1437","resources/trios/L2T1A3.jpg","38","restless",0.5,0.7,0.5,0.844409812079582,"false"
"image-keyboard-response",84,106184,"0.0-3.24-1.24","fc60n7tg2jdxje4",784,"60.csv","","null","resources/maskTrios/BT1B.jpg","null","",NA,NA,NA,NA,""
"image-keyboard-response",85,107386,"0.0-3.24-2.24","fc60n7tg2jdxje4",784,"60.csv","","null","resources/images/fishbone.png","null","",NA,NA,NA,NA,""
"image-keyboard-response",86,107844,"0.0-3.25-0.25","fc60n7tg2jdxje4",784,"60.csv","","457","resources/trios/L2T2A3.jpg","37","restless",0.5,0.7,0.5,0.510375726161643,"false"
"image-keyboard-response",87,108246,"0.0-3.25-1.25","fc60n7tg2jdxje4",784,"60.csv","","null","resources/maskTrios/L2BB.jpg","null","",NA,NA,NA,NA,""
"image-keyboard-response",88,109449,"0.0-3.25-2.25","fc60n7tg2jdxje4",784,"60.csv","","null","resources/images/fishbone.png","null","",NA,NA,NA,NA,""
"image-keyboard-response",89,110240,"0.0-3.26-0.26","fc60n7tg2jdxje4",784,"60.csv","","788.9999999999854","resources/trios/L2T2A3.jpg","39","restless",0.5,0.7,0.5,0.000651420653981938,"true"
"image-keyboard-response",90,110642,"0.0-3.26-1.26","fc60n7tg2jdxje4",784,"60.csv","","null","resources/maskTrios/BBA3.jpg","null","",NA,NA,NA,NA,""
"image-keyboard-response",91,111845,"0.0-3.26-2.26","fc60n7tg2jdxje4",784,"60.csv","","null","resources/images/coin2.png","null","",NA,NA,NA,NA,""
"image-keyboard-response",92,112189,"0.0-3.27-0.27","fc60n7tg2jdxje4",784,"60.csv","","342.99999999998545","resources/trios/L1T1A1.jpg","39","restless",0.5,0.7,0.5,0.932505504235264,"false"
"image-keyboard-response",93,112591,"0.0-3.27-1.27","fc60n7tg2jdxje4",784,"60.csv","","null","resources/maskTrios/BBA1.jpg","null","",NA,NA,NA,NA,""
"image-keyboard-response",94,113794,"0.0-3.27-2.27","fc60n7tg2jdxje4",784,"60.csv","","null","resources/images/fishbone.png","null","",NA,NA,NA,NA,""
"image-keyboard-response",95,116289,"0.0-3.28-0.28","fc60n7tg2jdxje4",784,"60.csv","","2492.9999999999854","resources/trios/L2T2A1.jpg","38","restless",0.4,0.7,0.4,0.171178540820804,"true"
"image-keyboard-response",96,116691,"0.0-3.28-1.28","fc60n7tg2jdxje4",784,"60.csv","","null","resources/maskTrios/BT2B.jpg","null","",NA,NA,NA,NA,""
"image-keyboard-response",97,117894,"0.0-3.28-2.28","fc60n7tg2jdxje4",784,"60.csv","","null","resources/images/coin2.png","null","",NA,NA,NA,NA,""
"image-keyboard-response",98,117974,"0.0-3.29-0.29","fc60n7tg2jdxje4",784,"60.csv","","79.00000000001455","resources/trios/L2T2A1.jpg","37","restless",0.3,0.7,0.5,0.607023636154268,"false"
"image-keyboard-response",99,118376,"0.0-3.29-1.29","fc60n7tg2jdxje4",784,"60.csv","","null","resources/maskTrios/L2BB.jpg","null","",NA,NA,NA,NA,""
"image-keyboard-response",100,119579,"0.0-3.29-2.29","fc60n7tg2jdxje4",784,"60.csv","","null","resources/images/fishbone.png","null","",NA,NA,NA,NA,""
"image-keyboard-response",101,122589,"0.0-3.30-0.30","fc60n7tg2jdxje4",784,"60.csv","","3008.9999999999854","resources/trios/L2T2A3.jpg","38","restless",0.3,0.7,0.5,0.320188647927511,"true"
"image-keyboard-response",102,122992,"0.0-3.30-1.30","fc60n7tg2jdxje4",784,"60.csv","","null","resources/maskTrios/BT2B.jpg","null","",NA,NA,NA,NA,""
"image-keyboard-response",103,124194,"0.0-3.30-2.30","fc60n7tg2jdxje4",784,"60.csv","","null","resources/images/coin2.png","null","",NA,NA,NA,NA,""
"image-keyboard-response",104,126939,"0.0-3.31-0.31","fc60n7tg2jdxje4",784,"60.csv","","2743","resources/trios/L1T2A1.jpg","38","restless",0.3,0.7,0.5,0.974256391691089,"false"
"image-keyboard-response",105,127341,"0.0-3.31-1.31","fc60n7tg2jdxje4",784,"60.csv","","null","resources/maskTrios/BT2B.jpg","null","",NA,NA,NA,NA,""
"image-keyboard-response",106,128543,"0.0-3.31-2.31","fc60n7tg2jdxje4",784,"60.csv","","null","resources/images/fishbone.png","null","",NA,NA,NA,NA,""
"image-keyboard-response",107,128828,"0.0-3.32-0.32","fc60n7tg2jdxje4",784,"60.csv","","283","resources/trios/L1T1A1.jpg","37","restless",0.3,0.7,0.6,0.121985739506369,"true"
"image-keyboard-response",108,129231,"0.0-3.32-1.32","fc60n7tg2jdxje4",784,"60.csv","","null","resources/maskTrios/L1BB.jpg","null","",NA,NA,NA,NA,""
"image-keyboard-response",109,130433,"0.0-3.32-2.32","fc60n7tg2jdxje4",784,"60.csv","","null","resources/images/coin2.png","null","",NA,NA,NA,NA,""
"image-keyboard-response",110,130806,"0.0-3.33-0.33","fc60n7tg2jdxje4",784,"60.csv","","371","resources/trios/L1T2A1.jpg","37","restless",0.3,0.7,0.6,0.573500310407753,"false"
"image-keyboard-response",111,131208,"0.0-3.33-1.33","fc60n7tg2jdxje4",784,"60.csv","","null","resources/maskTrios/L1BB.jpg","null","",NA,NA,NA,NA,""
"image-keyboard-response",112,132409,"0.0-3.33-2.33","fc60n7tg2jdxje4",784,"60.csv","","null","resources/images/fishbone.png","null","",NA,NA,NA,NA,""
"image-keyboard-response",113,132682,"0.0-3.34-0.34","fc60n7tg2jdxje4",784,"60.csv","","271.9999999999709","resources/trios/L2T1A3.jpg","39","restless",0.3,0.7,0.6,0.922557928879064,"false"
"image-keyboard-response",114,133085,"0.0-3.34-1.34","fc60n7tg2jdxje4",784,"60.csv","","null","resources/maskTrios/BBA3.jpg","null","",NA,NA,NA,NA,""
"image-keyboard-response",115,134287,"0.0-3.34-2.34","fc60n7tg2jdxje4",784,"60.csv","","null","resources/images/fishbone.png","null","",NA,NA,NA,NA,""
"image-keyboard-response",116,134593,"0.0-3.35-0.35","fc60n7tg2jdxje4",784,"60.csv","","305","resources/trios/L2T2A1.jpg","37","restless",0.3,0.7,0.6,0.977124177627695,"false"
"image-keyboard-response",117,134996,"0.0-3.35-1.35","fc60n7tg2jdxje4",784,"60.csv","","null","resources/maskTrios/L2BB.jpg","null","",NA,NA,NA,NA,""
"image-keyboard-response",118,136198,"0.0-3.35-2.35","fc60n7tg2jdxje4",784,"60.csv","","null","resources/images/fishbone.png","null","",NA,NA,NA,NA,""
"image-keyboard-response",119,136276,"0.0-3.36-0.36","fc60n7tg2jdxje4",784,"60.csv","","77","resources/trios/L2T1A1.jpg","37","restless",0.3,0.7,0.6,0.493624449087865,"false"
"image-keyboard-response",120,136678,"0.0-3.36-1.36","fc60n7tg2jdxje4",784,"60.csv","","null","resources/maskTrios/L2BB.jpg","null","",NA,NA,NA,NA,""
"image-keyboard-response",121,137880,"0.0-3.36-2.36","fc60n7tg2jdxje4",784,"60.csv","","null","resources/images/fishbone.png","null","",NA,NA,NA,NA,""
"image-keyboard-response",122,137886,"0.0-3.37-0.37","fc60n7tg2jdxje4",784,"60.csv","","4.999999999970896","resources/trios/L1T2A1.jpg","38","restless",0.3,0.6,0.6,0.652156986165478,"false"
"image-keyboard-response",123,138287,"0.0-3.37-1.37","fc60n7tg2jdxje4",784,"60.csv","","null","resources/maskTrios/BT2B.jpg","null","",NA,NA,NA,NA,""
"image-keyboard-response",124,139490,"0.0-3.37-2.37","fc60n7tg2jdxje4",784,"60.csv","","null","resources/images/fishbone.png","null","",NA,NA,NA,NA,""
"image-keyboard-response",125,140772,"0.0-3.38-0.38","fc60n7tg2jdxje4",784,"60.csv","","1281","resources/trios/L1T2A1.jpg","38","restless",0.3,0.6,0.5,0.458223555622719,"true"
"image-keyboard-response",126,141174,"0.0-3.38-1.38","fc60n7tg2jdxje4",784,"60.csv","","null","resources/maskTrios/BT2B.jpg","null","",NA,NA,NA,NA,""
"image-keyboard-response",127,142377,"0.0-3.38-2.38","fc60n7tg2jdxje4",784,"60.csv","","null","resources/images/coin2.png","null","",NA,NA,NA,NA,""
"image-keyboard-response",128,143665,"0.0-3.39-0.39","fc60n7tg2jdxje4",784,"60.csv","","1287","resources/trios/L1T1A1.jpg","38","restless",0.3,0.6,0.5,0.762517037138286,"false"
"image-keyboard-response",129,144067,"0.0-3.39-1.39","fc60n7tg2jdxje4",784,"60.csv","","null","resources/maskTrios/BT1B.jpg","null","",NA,NA,NA,NA,""
"image-keyboard-response",130,145270,"0.0-3.39-2.39","fc60n7tg2jdxje4",784,"60.csv","","null","resources/images/fishbone.png","null","",NA,NA,NA,NA,""
"image-keyboard-response",131,145648,"0.0-3.40-0.40","fc60n7tg2jdxje4",784,"60.csv","","378.0000000000291","resources/trios/L2T2A1.jpg","37","restless",0.3,0.6,0.5,0.395236487718166,"false"
"image-keyboard-response",132,146051,"0.0-3.40-1.40","fc60n7tg2jdxje4",784,"60.csv","","null","resources/maskTrios/L2BB.jpg","null","",NA,NA,NA,NA,""
"image-keyboard-response",133,147253,"0.0-3.40-2.40","fc60n7tg2jdxje4",784,"60.csv","","null","resources/images/fishbone.png","null","",NA,NA,NA,NA,""
"image-keyboard-response",134,147739,"0.0-3.41-0.41","fc60n7tg2jdxje4",784,"60.csv","","486","resources/trios/L1T2A1.jpg","37","restless",0.3,0.6,0.5,0.688609068357399,"false"
"image-keyboard-response",135,148142,"0.0-3.41-1.41","fc60n7tg2jdxje4",784,"60.csv","","null","resources/maskTrios/L1BB.jpg","null","",NA,NA,NA,NA,""
"image-keyboard-response",136,149344,"0.0-3.41-2.41","fc60n7tg2jdxje4",784,"60.csv","","null","resources/images/fishbone.png","null","",NA,NA,NA,NA,""
"image-keyboard-response",137,149539,"0.0-3.42-0.42","fc60n7tg2jdxje4",784,"60.csv","","194","resources/trios/L1T2A1.jpg","39","restless",0.3,0.6,0.5,0.900285509884091,"false"
"image-keyboard-response",138,149942,"0.0-3.42-1.42","fc60n7tg2jdxje4",784,"60.csv","","null","resources/maskTrios/BBA1.jpg","null","",NA,NA,NA,NA,""
"image-keyboard-response",139,151144,"0.0-3.42-2.42","fc60n7tg2jdxje4",784,"60.csv","","null","resources/images/fishbone.png","null","",NA,NA,NA,NA,""
"image-keyboard-response",140,152534,"0.0-3.43-0.43","fc60n7tg2jdxje4",784,"60.csv","","1389","resources/trios/L2T2A3.jpg","39","restless",0.3,0.7,0.4,0.931789875851942,"false"
"image-keyboard-response",141,152937,"0.0-3.43-1.43","fc60n7tg2jdxje4",784,"60.csv","","null","resources/maskTrios/BBA3.jpg","null","",NA,NA,NA,NA,""
"image-keyboard-response",142,154139,"0.0-3.43-2.43","fc60n7tg2jdxje4",784,"60.csv","","null","resources/images/fishbone.png","null","",NA,NA,NA,NA,""
"image-keyboard-response",143,154878,"0.0-3.44-0.44","fc60n7tg2jdxje4",784,"60.csv","","738","resources/trios/L1T1A3.jpg","38","restless",0.2,0.7,0.4,0.447711754091676,"true"
"image-keyboard-response",144,155280,"0.0-3.44-1.44","fc60n7tg2jdxje4",784,"60.csv","","null","resources/maskTrios/BT1B.jpg","null","",NA,NA,NA,NA,""
"image-keyboard-response",145,156482,"0.0-3.44-2.44","fc60n7tg2jdxje4",784,"60.csv","","null","resources/images/coin2.png","null","",NA,NA,NA,NA,""
"image-keyboard-response",146,157296,"0.0-3.45-0.45","fc60n7tg2jdxje4",784,"60.csv","","813","resources/trios/L2T1A3.jpg","38","restless",0.2,0.7,0.4,0.671697207178956,"true"
"image-keyboard-response",147,157699,"0.0-3.45-1.45","fc60n7tg2jdxje4",784,"60.csv","","null","resources/maskTrios/BT1B.jpg","null","",NA,NA,NA,NA,""
"image-keyboard-response",148,158901,"0.0-3.45-2.45","fc60n7tg2jdxje4",784,"60.csv","","null","resources/images/coin2.png","null","",NA,NA,NA,NA,""
"image-keyboard-response",149,161461,"0.0-3.46-0.46","fc60n7tg2jdxje4",784,"60.csv","","2557","resources/trios/L2T2A3.jpg","38","restless",0.2,0.7,0.4,0.534539342281414,"true"
"image-keyboard-response",150,161864,"0.0-3.46-1.46","fc60n7tg2jdxje4",784,"60.csv","","null","resources/maskTrios/BT2B.jpg","null","",NA,NA,NA,NA,""
"image-keyboard-response",151,163067,"0.0-3.46-2.46","fc60n7tg2jdxje4",784,"60.csv","","null","resources/images/coin2.png","null","",NA,NA,NA,NA,""
"image-keyboard-response",152,163361,"0.0-3.47-0.47","fc60n7tg2jdxje4",784,"60.csv","","292","resources/trios/L1T2A1.jpg","37","restless",0.2,0.7,0.4,0.704358335402952,"false"
"image-keyboard-response",153,163763,"0.0-3.47-1.47","fc60n7tg2jdxje4",784,"60.csv","","null","resources/maskTrios/L1BB.jpg","null","",NA,NA,NA,NA,""
"image-keyboard-response",154,164966,"0.0-3.47-2.47","fc60n7tg2jdxje4",784,"60.csv","","null","resources/images/fishbone.png","null","",NA,NA,NA,NA,""
"image-keyboard-response",155,165809,"0.0-3.48-0.48","fc60n7tg2jdxje4",784,"60.csv","","842","resources/trios/L1T1A1.jpg","38","restless",0.2,0.7,0.4,0.0536943749695605,"true"
"image-keyboard-response",156,166211,"0.0-3.48-1.48","fc60n7tg2jdxje4",784,"60.csv","","null","resources/maskTrios/BT1B.jpg","null","",NA,NA,NA,NA,""
"image-keyboard-response",157,167414,"0.0-3.48-2.48","fc60n7tg2jdxje4",784,"60.csv","","null","resources/images/coin2.png","null","",NA,NA,NA,NA,""
"image-keyboard-response",158,180197,"0.0-3.49-0.49","fc60n7tg2jdxje4",784,"60.csv","","12781","resources/trios/L1T1A3.jpg","38","restless",0.2,0.7,0.4,0.019283895569931,"true"
"image-keyboard-response",159,180599,"0.0-3.49-1.49","fc60n7tg2jdxje4",784,"60.csv","","null","resources/maskTrios/BT1B.jpg","null","",NA,NA,NA,NA,""
"image-keyboard-response",160,181802,"0.0-3.49-2.49","fc60n7tg2jdxje4",784,"60.csv","","null","resources/images/coin2.png","null","",NA,NA,NA,NA,""
"image-keyboard-response",161,192853,"0.0-3.50-0.50","fc60n7tg2jdxje4",784,"60.csv","","11049","resources/trios/L2T2A1.jpg","38","restless",0.2,0.7,0.4,0.0373974270508717,"true"
"image-keyboard-response",162,193255,"0.0-3.50-1.50","fc60n7tg2jdxje4",784,"60.csv","","null","resources/maskTrios/BT2B.jpg","null","",NA,NA,NA,NA,""
"image-keyboard-response",163,194458,"0.0-3.50-2.50","fc60n7tg2jdxje4",784,"60.csv","","null","resources/images/coin2.png","null","",NA,NA,NA,NA,""
"image-keyboard-response",164,195750,"0.0-3.51-0.51","fc60n7tg2jdxje4",784,"60.csv","","1291","resources/trios/L2T1A1.jpg","37","restless",0.2,0.7,0.4,0.904755413466141,"false"
"image-keyboard-response",165,196153,"0.0-3.51-1.51","fc60n7tg2jdxje4",784,"60.csv","","null","resources/maskTrios/L2BB.jpg","null","",NA,NA,NA,NA,""
"image-keyboard-response",166,197355,"0.0-3.51-2.51","fc60n7tg2jdxje4",784,"60.csv","","null","resources/images/fishbone.png","null","",NA,NA,NA,NA,""
"image-keyboard-response",167,198623,"0.0-3.52-0.52","fc60n7tg2jdxje4",784,"60.csv","","1266","resources/trios/L1T1A3.jpg","38","restless",0.2,0.7,0.4,0.316477298007973,"true"
"image-keyboard-response",168,199026,"0.0-3.52-1.52","fc60n7tg2jdxje4",784,"60.csv","","null","resources/maskTrios/BT1B.jpg","null","",NA,NA,NA,NA,""
"image-keyboard-response",169,200228,"0.0-3.52-2.52","fc60n7tg2jdxje4",784,"60.csv","","null","resources/images/coin2.png","null","",NA,NA,NA,NA,""
"image-keyboard-response",170,203580,"0.0-3.53-0.53","fc60n7tg2jdxje4",784,"60.csv","","3350","resources/trios/L1T2A3.jpg","37","restless",0.2,0.7,0.4,0.731425328795334,"false"
"image-keyboard-response",171,203981,"0.0-3.53-1.53","fc60n7tg2jdxje4",784,"60.csv","","null","resources/maskTrios/L1BB.jpg","null","",NA,NA,NA,NA,""
"image-keyboard-response",172,205184,"0.0-3.53-2.53","fc60n7tg2jdxje4",784,"60.csv","","null","resources/images/fishbone.png","null","",NA,NA,NA,NA,""
"image-keyboard-response",173,205962,"0.0-3.54-0.54","fc60n7tg2jdxje4",784,"60.csv","","775.9999999999709","resources/trios/L1T1A3.jpg","38","restless",0.3,0.7,0.4,0.897946079336591,"false"
"image-keyboard-response",174,206364,"0.0-3.54-1.54","fc60n7tg2jdxje4",784,"60.csv","","null","resources/maskTrios/BT1B.jpg","null","",NA,NA,NA,NA,""
"image-keyboard-response",175,207566,"0.0-3.54-2.54","fc60n7tg2jdxje4",784,"60.csv","","null","resources/images/fishbone.png","null","",NA,NA,NA,NA,""
"image-keyboard-response",176,208727,"0.0-3.55-0.55","fc60n7tg2jdxje4",784,"60.csv","","1159.999999999971","resources/trios/L1T1A1.jpg","37","restless",0.3,0.6,0.4,0.194172017693436,"true"
"image-keyboard-response",177,209128,"0.0-3.55-1.55","fc60n7tg2jdxje4",784,"60.csv","","null","resources/maskTrios/L1BB.jpg","null","",NA,NA,NA,NA,""
"image-keyboard-response",178,210330,"0.0-3.55-2.55","fc60n7tg2jdxje4",784,"60.csv","","null","resources/images/coin2.png","null","",NA,NA,NA,NA,""
"image-keyboard-response",179,217598,"0.0-3.56-0.56","fc60n7tg2jdxje4",784,"60.csv","","7266.000000000029","resources/trios/L2T2A3.jpg","38","restless",0.4,0.6,0.4,0.405064303591951,"true"
"image-keyboard-response",180,217999,"0.0-3.56-1.56","fc60n7tg2jdxje4",784,"60.csv","","null","resources/maskTrios/BT2B.jpg","null","",NA,NA,NA,NA,""
"image-keyboard-response",181,219202,"0.0-3.56-2.56","fc60n7tg2jdxje4",784,"60.csv","","null","resources/images/coin2.png","null","",NA,NA,NA,NA,""
"image-keyboard-response",182,223010,"0.0-3.57-0.57","fc60n7tg2jdxje4",784,"60.csv","","3805.999999999971","resources/trios/L1T1A1.jpg","38","restless",0.4,0.6,0.4,0.471295314294073,"true"
"image-keyboard-response",183,223412,"0.0-3.57-1.57","fc60n7tg2jdxje4",784,"60.csv","","null","resources/maskTrios/BT1B.jpg","null","",NA,NA,NA,NA,""
"image-keyboard-response",184,224614,"0.0-3.57-2.57","fc60n7tg2jdxje4",784,"60.csv","","null","resources/images/coin2.png","null","",NA,NA,NA,NA,""
"image-keyboard-response",185,225775,"0.0-3.58-0.58","fc60n7tg2jdxje4",784,"60.csv","","1160.000000000029","resources/trios/L1T1A1.jpg","37","restless",0.4,0.6,0.4,0.303537013403001,"true"
"image-keyboard-response",186,226178,"0.0-3.58-1.58","fc60n7tg2jdxje4",784,"60.csv","","null","resources/maskTrios/L1BB.jpg","null","",NA,NA,NA,NA,""
"image-keyboard-response",187,227380,"0.0-3.58-2.58","fc60n7tg2jdxje4",784,"60.csv","","null","resources/images/coin2.png","null","",NA,NA,NA,NA,""
"image-keyboard-response",188,228680,"0.0-3.59-0.59","fc60n7tg2jdxje4",784,"60.csv","","1296.000000000029","resources/trios/L2T2A1.jpg","37","restless",0.4,0.6,0.4,0.159344029949758,"true"
"image-keyboard-response",189,229082,"0.0-3.59-1.59","fc60n7tg2jdxje4",784,"60.csv","","null","resources/maskTrios/L2BB.jpg","null","",NA,NA,NA,NA,""
"image-keyboard-response",190,230285,"0.0-3.59-2.59","fc60n7tg2jdxje4",784,"60.csv","","null","resources/images/coin2.png","null","",NA,NA,NA,NA,""
"image-keyboard-response",191,232977,"0.0-3.60-0.60","fc60n7tg2jdxje4",784,"60.csv","","2690","resources/trios/L1T2A1.jpg","38","restless",0.4,0.6,0.4,0.0670475346907325,"true"
"image-keyboard-response",192,233380,"0.0-3.60-1.60","fc60n7tg2jdxje4",784,"60.csv","","null","resources/maskTrios/BT2B.jpg","null","",NA,NA,NA,NA,""
"image-keyboard-response",193,234583,"0.0-3.60-2.60","fc60n7tg2jdxje4",784,"60.csv","","null","resources/images/coin2.png","null","",NA,NA,NA,NA,""
"image-keyboard-response",194,235072,"0.0-3.61-0.61","fc60n7tg2jdxje4",784,"60.csv","","488","resources/trios/L2T1A3.jpg","38","restless",0.4,0.6,0.4,0.31106493176784,"true"
"image-keyboard-response",195,235474,"0.0-3.61-1.61","fc60n7tg2jdxje4",784,"60.csv","","null","resources/maskTrios/BT1B.jpg","null","",NA,NA,NA,NA,""
"image-keyboard-response",196,236676,"0.0-3.61-2.61","fc60n7tg2jdxje4",784,"60.csv","","null","resources/images/coin2.png","null","",NA,NA,NA,NA,""
"image-keyboard-response",197,237879,"0.0-3.62-0.62","fc60n7tg2jdxje4",784,"60.csv","","1201","resources/trios/L1T2A1.jpg","38","restless",0.4,0.6,0.4,0.978082076025435,"false"
"image-keyboard-response",198,238280,"0.0-3.62-1.62","fc60n7tg2jdxje4",784,"60.csv","","null","resources/maskTrios/BT2B.jpg","null","",NA,NA,NA,NA,""
"image-keyboard-response",199,239482,"0.0-3.62-2.62","fc60n7tg2jdxje4",784,"60.csv","","null","resources/images/fishbone.png","null","",NA,NA,NA,NA,""
"image-keyboard-response",200,240315,"0.0-3.63-0.63","fc60n7tg2jdxje4",784,"60.csv","","831","resources/trios/L2T1A1.jpg","38","restless",0.4,0.6,0.4,0.877795278964299,"false"
"image-keyboard-response",201,240716,"0.0-3.63-1.63","fc60n7tg2jdxje4",784,"60.csv","","null","resources/maskTrios/BT1B.jpg","null","",NA,NA,NA,NA,""
"image-keyboard-response",202,241918,"0.0-3.63-2.63","fc60n7tg2jdxje4",784,"60.csv","","null","resources/images/fishbone.png","null","",NA,NA,NA,NA,""
"image-keyboard-response",203,242228,"0.0-3.64-0.64","fc60n7tg2jdxje4",784,"60.csv","","308","resources/trios/L1T1A1.jpg","37","restless",0.4,0.6,0.4,0.0848694392947219,"true"
"image-keyboard-response",204,242630,"0.0-3.64-1.64","fc60n7tg2jdxje4",784,"60.csv","","null","resources/maskTrios/L1BB.jpg","null","",NA,NA,NA,NA,""
"image-keyboard-response",205,243832,"0.0-3.64-2.64","fc60n7tg2jdxje4",784,"60.csv","","null","resources/images/coin2.png","null","",NA,NA,NA,NA,""
"image-keyboard-response",206,244331,"0.0-3.65-0.65","fc60n7tg2jdxje4",784,"60.csv","","497","resources/trios/L1T1A1.jpg","37","restless",0.4,0.6,0.4,0.971307234440592,"false"
"image-keyboard-response",207,244733,"0.0-3.65-1.65","fc60n7tg2jdxje4",784,"60.csv","","null","resources/maskTrios/L1BB.jpg","null","",NA,NA,NA,NA,""
"image-keyboard-response",208,245936,"0.0-3.65-2.65","fc60n7tg2jdxje4",784,"60.csv","","null","resources/images/fishbone.png","null","",NA,NA,NA,NA,""
"image-keyboard-response",209,246394,"0.0-3.66-0.66","fc60n7tg2jdxje4",784,"60.csv","","455","resources/trios/L1T2A3.jpg","38","restless",0.4,0.6,0.4,0.658372678264028,"false"
"image-keyboard-response",210,246796,"0.0-3.66-1.66","fc60n7tg2jdxje4",784,"60.csv","","null","resources/maskTrios/BT2B.jpg","null","",NA,NA,NA,NA,""
"image-keyboard-response",211,247999,"0.0-3.66-2.66","fc60n7tg2jdxje4",784,"60.csv","","null","resources/images/fishbone.png","null","",NA,NA,NA,NA,""
"image-keyboard-response",212,248377,"0.0-3.67-0.67","fc60n7tg2jdxje4",784,"60.csv","","375","resources/trios/L1T2A1.jpg","37","restless",0.4,0.6,0.4,0.295031207602315,"true"
"image-keyboard-response",213,248779,"0.0-3.67-1.67","fc60n7tg2jdxje4",784,"60.csv","","null","resources/maskTrios/L1BB.jpg","null","",NA,NA,NA,NA,""
"image-keyboard-response",214,249982,"0.0-3.67-2.67","fc60n7tg2jdxje4",784,"60.csv","","null","resources/images/coin2.png","null","",NA,NA,NA,NA,""
"image-keyboard-response",215,250351,"0.0-3.68-0.68","fc60n7tg2jdxje4",784,"60.csv","","367.0000000000291","resources/trios/L2T2A3.jpg","37","restless",0.4,0.6,0.4,0.0797284782185365,"true"
"image-keyboard-response",216,250753,"0.0-3.68-1.68","fc60n7tg2jdxje4",784,"60.csv","","null","resources/maskTrios/L2BB.jpg","null","",NA,NA,NA,NA,""
"image-keyboard-response",217,251955,"0.0-3.68-2.68","fc60n7tg2jdxje4",784,"60.csv","","null","resources/images/coin2.png","null","",NA,NA,NA,NA,""
"image-keyboard-response",218,252526,"0.0-3.69-0.69","fc60n7tg2jdxje4",784,"60.csv","","568.9999999999709","resources/trios/L1T2A1.jpg","37","restless",0.4,0.6,0.4,0.976519178843946,"false"
"image-keyboard-response",219,252928,"0.0-3.69-1.69","fc60n7tg2jdxje4",784,"60.csv","","null","resources/maskTrios/L1BB.jpg","null","",NA,NA,NA,NA,""
"image-keyboard-response",220,254130,"0.0-3.69-2.69","fc60n7tg2jdxje4",784,"60.csv","","null","resources/images/fishbone.png","null","",NA,NA,NA,NA,""
"image-keyboard-response",221,255455,"0.0-3.70-0.70","fc60n7tg2jdxje4",784,"60.csv","","1323","resources/trios/L1T1A1.jpg","39","restless",0.3,0.6,0.3,0.765245592494747,"false"
"image-keyboard-response",222,255858,"0.0-3.70-1.70","fc60n7tg2jdxje4",784,"60.csv","","null","resources/maskTrios/BBA1.jpg","null","",NA,NA,NA,NA,""
"image-keyboard-response",223,257061,"0.0-3.70-2.70","fc60n7tg2jdxje4",784,"60.csv","","null","resources/images/fishbone.png","null","",NA,NA,NA,NA,""
"image-keyboard-response",224,265285,"0.0-3.71-0.71","fc60n7tg2jdxje4",784,"60.csv","","8223","resources/trios/L2T1A3.jpg","38","restless",0.3,0.6,0.3,0.772618622057551,"false"
"image-keyboard-response",225,265688,"0.0-3.71-1.71","fc60n7tg2jdxje4",784,"60.csv","","null","resources/maskTrios/BT1B.jpg","null","",NA,NA,NA,NA,""
"image-keyboard-response",226,266890,"0.0-3.71-2.71","fc60n7tg2jdxje4",784,"60.csv","","null","resources/images/fishbone.png","null","",NA,NA,NA,NA,""
"image-keyboard-response",227,269078,"0.0-3.72-0.72","fc60n7tg2jdxje4",784,"60.csv","","2185.999999999942","resources/trios/L2T2A3.jpg","38","restless",0.3,0.6,0.3,0.00246342436191183,"true"
"image-keyboard-response",228,269480,"0.0-3.72-1.72","fc60n7tg2jdxje4",784,"60.csv","","null","resources/maskTrios/BT2B.jpg","null","",NA,NA,NA,NA,""
"image-keyboard-response",229,270682,"0.0-3.72-2.72","fc60n7tg2jdxje4",784,"60.csv","","null","resources/images/coin2.png","null","",NA,NA,NA,NA,""
"image-keyboard-response",230,272192,"0.0-3.73-0.73","fc60n7tg2jdxje4",784,"60.csv","","1508","resources/trios/L2T1A3.jpg","38","restless",0.3,0.5,0.3,0.0907345993534824,"true"
"image-keyboard-response",231,272593,"0.0-3.73-1.73","fc60n7tg2jdxje4",784,"60.csv","","null","resources/maskTrios/BT1B.jpg","null","",NA,NA,NA,NA,""
"image-keyboard-response",232,273795,"0.0-3.73-2.73","fc60n7tg2jdxje4",784,"60.csv","","null","resources/images/coin2.png","null","",NA,NA,NA,NA,""
"image-keyboard-response",233,274654,"0.0-3.74-0.74","fc60n7tg2jdxje4",784,"60.csv","","859","resources/trios/L2T1A3.jpg","38","restless",0.3,0.5,0.3,0.800980466749935,"false"
"image-keyboard-response",234,275057,"0.0-3.74-1.74","fc60n7tg2jdxje4",784,"60.csv","","null","resources/maskTrios/BT1B.jpg","null","",NA,NA,NA,NA,""
"image-keyboard-response",235,276260,"0.0-3.74-2.74","fc60n7tg2jdxje4",784,"60.csv","","null","resources/images/fishbone.png","null","",NA,NA,NA,NA,""
"image-keyboard-response",236,279870,"0.0-3.75-0.75","fc60n7tg2jdxje4",784,"60.csv","","3609","resources/trios/L2T1A3.jpg","38","restless",0.3,0.5,0.3,0.0464440185584212,"true"
"image-keyboard-response",237,280273,"0.0-3.75-1.75","fc60n7tg2jdxje4",784,"60.csv","","null","resources/maskTrios/BT1B.jpg","null","",NA,NA,NA,NA,""
"image-keyboard-response",238,281475,"0.0-3.75-2.75","fc60n7tg2jdxje4",784,"60.csv","","null","resources/images/coin2.png","null","",NA,NA,NA,NA,""
"image-keyboard-response",239,281918,"0.0-3.76-0.76","fc60n7tg2jdxje4",784,"60.csv","","441.9999999999418","resources/trios/L2T1A1.jpg","38","restless",0.3,0.5,0.3,0.62792006102719,"false"
"image-keyboard-response",240,282320,"0.0-3.76-1.76","fc60n7tg2jdxje4",784,"60.csv","","null","resources/maskTrios/BT1B.jpg","null","",NA,NA,NA,NA,""
"image-keyboard-response",241,283524,"0.0-3.76-2.76","fc60n7tg2jdxje4",784,"60.csv","","null","resources/images/fishbone.png","null","",NA,NA,NA,NA,""
"image-keyboard-response",242,284164,"0.0-3.77-0.77","fc60n7tg2jdxje4",784,"60.csv","","636","resources/trios/L2T2A3.jpg","37","restless",0.3,0.5,0.3,0.419820072529302,"false"
"image-keyboard-response",243,284565,"0.0-3.77-1.77","fc60n7tg2jdxje4",784,"60.csv","","null","resources/maskTrios/L2BB.jpg","null","",NA,NA,NA,NA,""
"image-keyboard-response",244,285767,"0.0-3.77-2.77","fc60n7tg2jdxje4",784,"60.csv","","null","resources/images/fishbone.png","null","",NA,NA,NA,NA,""
"image-keyboard-response",245,292380,"0.0-3.78-0.78","fc60n7tg2jdxje4",784,"60.csv","","6612.000000000058","resources/trios/L1T2A1.jpg","37","restless",0.3,0.5,0.3,0.676520154402093,"false"
"image-keyboard-response",246,292783,"0.0-3.78-1.78","fc60n7tg2jdxje4",784,"60.csv","","null","resources/maskTrios/L1BB.jpg","null","",NA,NA,NA,NA,""
"image-keyboard-response",247,293985,"0.0-3.78-2.78","fc60n7tg2jdxje4",784,"60.csv","","null","resources/images/fishbone.png","null","",NA,NA,NA,NA,""
"image-keyboard-response",248,300163,"0.0-3.79-0.79","fc60n7tg2jdxje4",784,"60.csv","","6176","resources/trios/L2T1A3.jpg","38","restless",0.3,0.5,0.3,0.344539659220917,"true"
"image-keyboard-response",249,300565,"0.0-3.79-1.79","fc60n7tg2jdxje4",784,"60.csv","","null","resources/maskTrios/BT1B.jpg","null","",NA,NA,NA,NA,""
"image-keyboard-response",250,301767,"0.0-3.79-2.79","fc60n7tg2jdxje4",784,"60.csv","","null","resources/images/coin2.png","null","",NA,NA,NA,NA,""
"image-keyboard-response",251,331591,"0.0-3.80-0.80","fc60n7tg2jdxje4",784,"60.csv","","29822","resources/trios/L2T1A1.jpg","38","restless",0.3,0.5,0.3,0.578704731336309,"false"
"image-keyboard-response",252,331994,"0.0-3.80-1.80","fc60n7tg2jdxje4",784,"60.csv","","null","resources/maskTrios/BT1B.jpg","null","",NA,NA,NA,NA,""
"image-keyboard-response",253,333196,"0.0-3.80-2.80","fc60n7tg2jdxje4",784,"60.csv","","null","resources/images/fishbone.png","null","",NA,NA,NA,NA,""
"image-keyboard-response",254,333576,"0.0-3.81-0.81","fc60n7tg2jdxje4",784,"60.csv","","378","resources/trios/L1T1A1.jpg","37","restless",0.4,0.5,0.3,0.764264063832942,"false"
"image-keyboard-response",255,333978,"0.0-3.81-1.81","fc60n7tg2jdxje4",784,"60.csv","","null","resources/maskTrios/L1BB.jpg","null","",NA,NA,NA,NA,""
"image-keyboard-response",256,335180,"0.0-3.81-2.81","fc60n7tg2jdxje4",784,"60.csv","","null","resources/images/fishbone.png","null","",NA,NA,NA,NA,""
"image-keyboard-response",257,344057,"0.0-3.82-0.82","fc60n7tg2jdxje4",784,"60.csv","","8875","resources/trios/L2T2A1.jpg","38","restless",0.4,0.5,0.3,0.269105012882717,"true"
"image-keyboard-response",258,344459,"0.0-3.82-1.82","fc60n7tg2jdxje4",784,"60.csv","","null","resources/maskTrios/BT2B.jpg","null","",NA,NA,NA,NA,""
"image-keyboard-response",259,345661,"0.0-3.82-2.82","fc60n7tg2jdxje4",784,"60.csv","","null","resources/images/coin2.png","null","",NA,NA,NA,NA,""
"image-keyboard-response",260,346292,"0.0-3.83-0.83","fc60n7tg2jdxje4",784,"60.csv","","629.0000000000582","resources/trios/L1T1A3.jpg","38","restless",0.4,0.5,0.3,0.516263150936193,"false"
"image-keyboard-response",261,346694,"0.0-3.83-1.83","fc60n7tg2jdxje4",784,"60.csv","","null","resources/maskTrios/BT1B.jpg","null","",NA,NA,NA,NA,""
"image-keyboard-response",262,347896,"0.0-3.83-2.83","fc60n7tg2jdxje4",784,"60.csv","","null","resources/images/fishbone.png","null","",NA,NA,NA,NA,""
"image-keyboard-response",263,351074,"0.0-3.84-0.84","fc60n7tg2jdxje4",784,"60.csv","","3177","resources/trios/L1T1A3.jpg","38","restless",0.4,0.5,0.3,0.813090953102751,"false"
"image-keyboard-response",264,351477,"0.0-3.84-1.84","fc60n7tg2jdxje4",784,"60.csv","","null","resources/maskTrios/BT1B.jpg","null","",NA,NA,NA,NA,""
"image-keyboard-response",265,352679,"0.0-3.84-2.84","fc60n7tg2jdxje4",784,"60.csv","","null","resources/images/fishbone.png","null","",NA,NA,NA,NA,""
"image-keyboard-response",266,352813,"0.0-3.85-0.85","fc60n7tg2jdxje4",784,"60.csv","","132","resources/trios/L2T1A1.jpg","38","restless",0.4,0.5,0.3,0.79548847978281,"false"
"image-keyboard-response",267,353215,"0.0-3.85-1.85","fc60n7tg2jdxje4",784,"60.csv","","null","resources/maskTrios/BT1B.jpg","null","",NA,NA,NA,NA,""
"image-keyboard-response",268,354417,"0.0-3.85-2.85","fc60n7tg2jdxje4",784,"60.csv","","null","resources/images/fishbone.png","null","",NA,NA,NA,NA,""
"image-keyboard-response",269,354766,"0.0-3.86-0.86","fc60n7tg2jdxje4",784,"60.csv","","346","resources/trios/L2T2A3.jpg","37","restless",0.4,0.5,0.3,0.995244059551591,"false"
"image-keyboard-response",270,355167,"0.0-3.86-1.86","fc60n7tg2jdxje4",784,"60.csv","","null","resources/maskTrios/L2BB.jpg","null","",NA,NA,NA,NA,""
"image-keyboard-response",271,356370,"0.0-3.86-2.86","fc60n7tg2jdxje4",784,"60.csv","","null","resources/images/fishbone.png","null","",NA,NA,NA,NA,""
"image-keyboard-response",272,356848,"0.0-3.87-0.87","fc60n7tg2jdxje4",784,"60.csv","","477","resources/trios/L1T2A3.jpg","37","restless",0.4,0.5,0.3,0.347287654222032,"true"
"image-keyboard-response",273,357251,"0.0-3.87-1.87","fc60n7tg2jdxje4",784,"60.csv","","null","resources/maskTrios/L1BB.jpg","null","",NA,NA,NA,NA,""
"image-keyboard-response",274,358453,"0.0-3.87-2.87","fc60n7tg2jdxje4",784,"60.csv","","null","resources/images/coin2.png","null","",NA,NA,NA,NA,""
"image-keyboard-response",275,358839,"0.0-3.88-0.88","fc60n7tg2jdxje4",784,"60.csv","","384","resources/trios/L1T2A3.jpg","37","restless",0.4,0.5,0.3,0.682808827480043,"false"
"image-keyboard-response",276,359243,"0.0-3.88-1.88","fc60n7tg2jdxje4",784,"60.csv","","null","resources/maskTrios/L1BB.jpg","null","",NA,NA,NA,NA,""
"image-keyboard-response",277,360445,"0.0-3.88-2.88","fc60n7tg2jdxje4",784,"60.csv","","null","resources/images/fishbone.png","null","",NA,NA,NA,NA,""
"image-keyboard-response",278,364084,"0.0-3.89-0.89","fc60n7tg2jdxje4",784,"60.csv","","3637","resources/trios/L2T1A3.jpg","38","restless",0.4,0.5,0.3,0.860231048162381,"false"
"image-keyboard-response",279,364487,"0.0-3.89-1.89","fc60n7tg2jdxje4",784,"60.csv","","null","resources/maskTrios/BT1B.jpg","null","",NA,NA,NA,NA,""
"image-keyboard-response",280,365689,"0.0-3.89-2.89","fc60n7tg2jdxje4",784,"60.csv","","null","resources/images/fishbone.png","null","",NA,NA,NA,NA,""
"image-keyboard-response",281,365701,"0.0-3.90-0.90","fc60n7tg2jdxje4",784,"60.csv","","11","resources/trios/L2T1A1.jpg","38","restless",0.4,0.5,0.3,0.14563908423195,"true"
"image-keyboard-response",282,366103,"0.0-3.90-1.90","fc60n7tg2jdxje4",784,"60.csv","","null","resources/maskTrios/BT1B.jpg","null","",NA,NA,NA,NA,""
"image-keyboard-response",283,367305,"0.0-3.90-2.90","fc60n7tg2jdxje4",784,"60.csv","","null","resources/images/coin2.png","null","",NA,NA,NA,NA,""
"image-keyboard-response",284,367789,"0.0-3.91-0.91","fc60n7tg2jdxje4",784,"60.csv","","483","resources/trios/L2T1A3.jpg","37","restless",0.4,0.5,0.3,0.493256298995153,"false"
"image-keyboard-response",285,368191,"0.0-3.91-1.91","fc60n7tg2jdxje4",784,"60.csv","","null","resources/maskTrios/L2BB.jpg","null","",NA,NA,NA,NA,""
"image-keyboard-response",286,369393,"0.0-3.91-2.91","fc60n7tg2jdxje4",784,"60.csv","","null","resources/images/fishbone.png","null","",NA,NA,NA,NA,""
"image-keyboard-response",287,369716,"0.0-3.92-0.92","fc60n7tg2jdxje4",784,"60.csv","","319.0000000000582","resources/trios/L2T1A1.jpg","37","restless",0.5,0.5,0.3,0.136579437749311,"true"
"image-keyboard-response",288,370118,"0.0-3.92-1.92","fc60n7tg2jdxje4",784,"60.csv","","null","resources/maskTrios/L2BB.jpg","null","",NA,NA,NA,NA,""
"image-keyboard-response",289,371320,"0.0-3.92-2.92","fc60n7tg2jdxje4",784,"60.csv","","null","resources/images/coin2.png","null","",NA,NA,NA,NA,""
"image-keyboard-response",290,372160,"0.0-3.93-0.93","fc60n7tg2jdxje4",784,"60.csv","","839","resources/trios/L2T1A1.jpg","38","restless",0.5,0.5,0.3,0.553803020836279,"false"
"image-keyboard-response",291,372561,"0.0-3.93-1.93","fc60n7tg2jdxje4",784,"60.csv","","null","resources/maskTrios/BT1B.jpg","null","",NA,NA,NA,NA,""
"image-keyboard-response",292,373763,"0.0-3.93-2.93","fc60n7tg2jdxje4",784,"60.csv","","null","resources/images/fishbone.png","null","",NA,NA,NA,NA,""
"image-keyboard-response",293,375048,"0.0-3.94-0.94","fc60n7tg2jdxje4",784,"60.csv","","1283","resources/trios/L2T1A1.jpg","38","restless",0.5,0.5,0.3,0.861817659442384,"false"
"image-keyboard-response",294,375450,"0.0-3.94-1.94","fc60n7tg2jdxje4",784,"60.csv","","null","resources/maskTrios/BT1B.jpg","null","",NA,NA,NA,NA,""
"image-keyboard-response",295,376653,"0.0-3.94-2.94","fc60n7tg2jdxje4",784,"60.csv","","null","resources/images/fishbone.png","null","",NA,NA,NA,NA,""
"image-keyboard-response",296,376939,"0.0-3.95-0.95","fc60n7tg2jdxje4",784,"60.csv","","285","resources/trios/L1T1A3.jpg","37","restless",0.5,0.5,0.3,0.478386713935659,"true"
"image-keyboard-response",297,377342,"0.0-3.95-1.95","fc60n7tg2jdxje4",784,"60.csv","","null","resources/maskTrios/L1BB.jpg","null","",NA,NA,NA,NA,""
"image-keyboard-response",298,378544,"0.0-3.95-2.95","fc60n7tg2jdxje4",784,"60.csv","","null","resources/images/coin2.png","null","",NA,NA,NA,NA,""
"image-keyboard-response",299,378807,"0.0-3.96-0.96","fc60n7tg2jdxje4",784,"60.csv","","262","resources/trios/L2T1A1.jpg","37","restless",0.5,0.5,0.3,0.114943590881978,"true"
"image-keyboard-response",300,379209,"0.0-3.96-1.96","fc60n7tg2jdxje4",784,"60.csv","","null","resources/maskTrios/L2BB.jpg","null","",NA,NA,NA,NA,""
"image-keyboard-response",301,380411,"0.0-3.96-2.96","fc60n7tg2jdxje4",784,"60.csv","","null","resources/images/coin2.png","null","",NA,NA,NA,NA,""
"image-keyboard-response",302,380442,"0.0-3.97-0.97","fc60n7tg2jdxje4",784,"60.csv","","29","resources/trios/L2T2A3.jpg","37","restless",0.5,0.5,0.3,0.101355637868815,"true"
"image-keyboard-response",303,380845,"0.0-3.97-1.97","fc60n7tg2jdxje4",784,"60.csv","","null","resources/maskTrios/L2BB.jpg","null","",NA,NA,NA,NA,""
"image-keyboard-response",304,382047,"0.0-3.97-2.97","fc60n7tg2jdxje4",784,"60.csv","","null","resources/images/coin2.png","null","",NA,NA,NA,NA,""
"image-keyboard-response",305,382403,"0.0-3.98-0.98","fc60n7tg2jdxje4",784,"60.csv","","352","resources/trios/L2T1A3.jpg","37","restless",0.6,0.5,0.3,0.285515824762773,"true"
"image-keyboard-response",306,382805,"0.0-3.98-1.98","fc60n7tg2jdxje4",784,"60.csv","","null","resources/maskTrios/L2BB.jpg","null","",NA,NA,NA,NA,""
"image-keyboard-response",307,384007,"0.0-3.98-2.98","fc60n7tg2jdxje4",784,"60.csv","","null","resources/images/coin2.png","null","",NA,NA,NA,NA,""
"image-keyboard-response",308,384301,"0.0-3.99-0.99","fc60n7tg2jdxje4",784,"60.csv","","292","resources/trios/L1T2A3.jpg","37","restless",0.6,0.5,0.2,0.328374124673548,"true"
"image-keyboard-response",309,384703,"0.0-3.99-1.99","fc60n7tg2jdxje4",784,"60.csv","","null","resources/maskTrios/L1BB.jpg","null","",NA,NA,NA,NA,""
"image-keyboard-response",310,385906,"0.0-3.99-2.99","fc60n7tg2jdxje4",784,"60.csv","","null","resources/images/coin2.png","null","",NA,NA,NA,NA,""
"image-keyboard-response",311,386176,"0.0-3.100-0.100","fc60n7tg2jdxje4",784,"60.csv","","269","resources/trios/L1T1A1.jpg","37","restless",0.6,0.4,0.2,0.167858478884409,"true"
"image-keyboard-response",312,386578,"0.0-3.100-1.100","fc60n7tg2jdxje4",784,"60.csv","","null","resources/maskTrios/L1BB.jpg","null","",NA,NA,NA,NA,""
"image-keyboard-response",313,387780,"0.0-3.100-2.100","fc60n7tg2jdxje4",784,"60.csv","","null","resources/images/coin2.png","null","",NA,NA,NA,NA,""
"image-keyboard-response",314,387952,"0.0-3.101-0.101","fc60n7tg2jdxje4",784,"60.csv","","167","resources/trios/L1T2A3.jpg","37","restless",0.6,0.4,0.2,0.899836763345567,"false"
"image-keyboard-response",315,388354,"0.0-3.101-1.101","fc60n7tg2jdxje4",784,"60.csv","","null","resources/maskTrios/L1BB.jpg","null","",NA,NA,NA,NA,""
"image-keyboard-response",316,389557,"0.0-3.101-2.101","fc60n7tg2jdxje4",784,"60.csv","","null","resources/images/fishbone.png","null","",NA,NA,NA,NA,""
"image-keyboard-response",317,389908,"0.0-3.102-0.102","fc60n7tg2jdxje4",784,"60.csv","","350","resources/trios/L2T2A3.jpg","38","restless",0.6,0.4,0.2,0.815950818327316,"false"
"image-keyboard-response",318,390309,"0.0-3.102-1.102","fc60n7tg2jdxje4",784,"60.csv","","null","resources/maskTrios/BT2B.jpg","null","",NA,NA,NA,NA,""
"image-keyboard-response",319,391511,"0.0-3.102-2.102","fc60n7tg2jdxje4",784,"60.csv","","null","resources/images/fishbone.png","null","",NA,NA,NA,NA,""
"image-keyboard-response",320,391794,"0.0-3.103-0.103","fc60n7tg2jdxje4",784,"60.csv","","281","resources/trios/L2T1A3.jpg","38","restless",0.6,0.5,0.2,0.243009434515761,"true"
"image-keyboard-response",321,392196,"0.0-3.103-1.103","fc60n7tg2jdxje4",784,"60.csv","","null","resources/maskTrios/BT1B.jpg","null","",NA,NA,NA,NA,""
"image-keyboard-response",322,393400,"0.0-3.103-2.103","fc60n7tg2jdxje4",784,"60.csv","","null","resources/images/coin2.png","null","",NA,NA,NA,NA,""
"image-keyboard-response",323,394276,"0.0-3.104-0.104","fc60n7tg2jdxje4",784,"60.csv","","875","resources/trios/L2T2A3.jpg","38","restless",0.6,0.5,0.2,0.180060774667958,"true"
"image-keyboard-response",324,394677,"0.0-3.104-1.104","fc60n7tg2jdxje4",784,"60.csv","","null","resources/maskTrios/BT2B.jpg","null","",NA,NA,NA,NA,""
"image-keyboard-response",325,395879,"0.0-3.104-2.104","fc60n7tg2jdxje4",784,"60.csv","","null","resources/images/coin2.png","null","",NA,NA,NA,NA,""
"image-keyboard-response",326,397189,"0.0-3.105-0.105","fc60n7tg2jdxje4",784,"60.csv","","1309","resources/trios/L2T2A3.jpg","38","restless",0.6,0.5,0.1,0.122516371637229,"true"
"image-keyboard-response",327,397591,"0.0-3.105-1.105","fc60n7tg2jdxje4",784,"60.csv","","null","resources/maskTrios/BT2B.jpg","null","",NA,NA,NA,NA,""
"image-keyboard-response",328,398793,"0.0-3.105-2.105","fc60n7tg2jdxje4",784,"60.csv","","null","resources/images/coin2.png","null","",NA,NA,NA,NA,""
"image-keyboard-response",329,400184,"0.0-3.106-0.106","fc60n7tg2jdxje4",784,"60.csv","","1388","resources/trios/L2T2A3.jpg","38","restless",0.6,0.5,0.1,0.769728996572141,"false"
"image-keyboard-response",330,400586,"0.0-3.106-1.106","fc60n7tg2jdxje4",784,"60.csv","","null","resources/maskTrios/BT2B.jpg","null","",NA,NA,NA,NA,""
"image-keyboard-response",331,401788,"0.0-3.106-2.106","fc60n7tg2jdxje4",784,"60.csv","","null","resources/images/fishbone.png","null","",NA,NA,NA,NA,""
"image-keyboard-response",332,402225,"0.0-3.107-0.107","fc60n7tg2jdxje4",784,"60.csv","","435","resources/trios/L2T2A3.jpg","37","restless",0.6,0.5,0.2,0.932856335161879,"false"
"image-keyboard-response",333,402628,"0.0-3.107-1.107","fc60n7tg2jdxje4",784,"60.csv","","null","resources/maskTrios/L2BB.jpg","null","",NA,NA,NA,NA,""
"image-keyboard-response",334,403830,"0.0-3.107-2.107","fc60n7tg2jdxje4",784,"60.csv","","null","resources/images/fishbone.png","null","",NA,NA,NA,NA,""
"image-keyboard-response",335,403914,"0.0-3.108-0.108","fc60n7tg2jdxje4",784,"60.csv","","82","resources/trios/L2T2A1.jpg","37","restless",0.6,0.5,0.3,0.0905315577776286,"true"
"image-keyboard-response",336,404316,"0.0-3.108-1.108","fc60n7tg2jdxje4",784,"60.csv","","null","resources/maskTrios/L2BB.jpg","null","",NA,NA,NA,NA,""
"image-keyboard-response",337,405519,"0.0-3.108-2.108","fc60n7tg2jdxje4",784,"60.csv","","null","resources/images/coin2.png","null","",NA,NA,NA,NA,""
"image-keyboard-response",338,405880,"0.0-3.109-0.109","fc60n7tg2jdxje4",784,"60.csv","","360","resources/trios/L1T1A3.jpg","37","restless",0.6,0.6,0.3,0.407177010888724,"true"
"image-keyboard-response",339,406282,"0.0-3.109-1.109","fc60n7tg2jdxje4",784,"60.csv","","null","resources/maskTrios/L1BB.jpg","null","",NA,NA,NA,NA,""
"image-keyboard-response",340,407485,"0.0-3.109-2.109","fc60n7tg2jdxje4",784,"60.csv","","null","resources/images/coin2.png","null","",NA,NA,NA,NA,""
"image-keyboard-response",341,407792,"0.0-3.110-0.110","fc60n7tg2jdxje4",784,"60.csv","","306","resources/trios/L2T1A3.jpg","37","restless",0.6,0.5,0.3,0.0386046380272657,"true"
"image-keyboard-response",342,408195,"0.0-3.110-1.110","fc60n7tg2jdxje4",784,"60.csv","","null","resources/maskTrios/L2BB.jpg","null","",NA,NA,NA,NA,""
"image-keyboard-response",343,409396,"0.0-3.110-2.110","fc60n7tg2jdxje4",784,"60.csv","","null","resources/images/coin2.png","null","",NA,NA,NA,NA,""
"image-keyboard-response",344,409404,"0.0-3.111-0.111","fc60n7tg2jdxje4",784,"60.csv","","5","resources/trios/L2T1A1.jpg","37","restless",0.6,0.5,0.3,0.760009192971273,"false"
"image-keyboard-response",345,409807,"0.0-3.111-1.111","fc60n7tg2jdxje4",784,"60.csv","","null","resources/maskTrios/L2BB.jpg","null","",NA,NA,NA,NA,""
"image-keyboard-response",346,411009,"0.0-3.111-2.111","fc60n7tg2jdxje4",784,"60.csv","","null","resources/images/fishbone.png","null","",NA,NA,NA,NA,""
"image-keyboard-response",347,412587,"0.0-3.112-0.112","fc60n7tg2jdxje4",784,"60.csv","","1574","resources/trios/L1T2A3.jpg","38","restless",0.6,0.5,0.3,0.039082254219258,"true"
"image-keyboard-response",348,412989,"0.0-3.112-1.112","fc60n7tg2jdxje4",784,"60.csv","","null","resources/maskTrios/BT2B.jpg","null","",NA,NA,NA,NA,""
"image-keyboard-response",349,414192,"0.0-3.112-2.112","fc60n7tg2jdxje4",784,"60.csv","","null","resources/images/coin2.png","null","",NA,NA,NA,NA,""
"image-keyboard-response",350,414950,"0.0-3.113-0.113","fc60n7tg2jdxje4",784,"60.csv","","757","resources/trios/L1T1A1.jpg","38","restless",0.5,0.5,0.3,0.821897073948927,"false"
"image-keyboard-response",351,415352,"0.0-3.113-1.113","fc60n7tg2jdxje4",784,"60.csv","","null","resources/maskTrios/BT1B.jpg","null","",NA,NA,NA,NA,""
"image-keyboard-response",352,416554,"0.0-3.113-2.113","fc60n7tg2jdxje4",784,"60.csv","","null","resources/images/fishbone.png","null","",NA,NA,NA,NA,""
"image-keyboard-response",353,416798,"0.0-3.114-0.114","fc60n7tg2jdxje4",784,"60.csv","","242","resources/trios/L2T1A3.jpg","37","restless",0.5,0.6,0.3,0.373316135254174,"true"
"image-keyboard-response",354,417200,"0.0-3.114-1.114","fc60n7tg2jdxje4",784,"60.csv","","null","resources/maskTrios/L2BB.jpg","null","",NA,NA,NA,NA,""
"image-keyboard-response",355,418403,"0.0-3.114-2.114","fc60n7tg2jdxje4",784,"60.csv","","null","resources/images/coin2.png","null","",NA,NA,NA,NA,""
"image-keyboard-response",356,418542,"0.0-3.115-0.115","fc60n7tg2jdxje4",784,"60.csv","","138","resources/trios/L2T1A3.jpg","37","restless",0.5,0.6,0.3,0.792494650101752,"false"
"image-keyboard-response",357,418944,"0.0-3.115-1.115","fc60n7tg2jdxje4",784,"60.csv","","null","resources/maskTrios/L2BB.jpg","null","",NA,NA,NA,NA,""
"image-keyboard-response",358,420146,"0.0-3.115-2.115","fc60n7tg2jdxje4",784,"60.csv","","null","resources/images/fishbone.png","null","",NA,NA,NA,NA,""
"image-keyboard-response",359,420680,"0.0-3.116-0.116","fc60n7tg2jdxje4",784,"60.csv","","532","resources/trios/L2T2A3.jpg","38","restless",0.5,0.6,0.3,0.821097796101636,"false"
"image-keyboard-response",360,421082,"0.0-3.116-1.116","fc60n7tg2jdxje4",784,"60.csv","","null","resources/maskTrios/BT2B.jpg","null","",NA,NA,NA,NA,""
"image-keyboard-response",361,422284,"0.0-3.116-2.116","fc60n7tg2jdxje4",784,"60.csv","","null","resources/images/fishbone.png","null","",NA,NA,NA,NA,""
"image-keyboard-response",362,423086,"0.0-3.117-0.117","fc60n7tg2jdxje4",784,"60.csv","","800","resources/trios/L1T2A3.jpg","37","restless",0.5,0.6,0.3,0.691314291944145,"false"
"image-keyboard-response",363,423488,"0.0-3.117-1.117","fc60n7tg2jdxje4",784,"60.csv","","null","resources/maskTrios/L1BB.jpg","null","",NA,NA,NA,NA,""
"image-keyboard-response",364,424690,"0.0-3.117-2.117","fc60n7tg2jdxje4",784,"60.csv","","null","resources/images/fishbone.png","null","",NA,NA,NA,NA,""
"image-keyboard-response",365,425268,"0.0-3.118-0.118","fc60n7tg2jdxje4",784,"60.csv","","574.9999999999418","resources/trios/L2T2A1.jpg","37","restless",0.5,0.6,0.3,0.161131322580085,"true"
"image-keyboard-response",366,425671,"0.0-3.118-1.118","fc60n7tg2jdxje4",784,"60.csv","","null","resources/maskTrios/L2BB.jpg","null","",NA,NA,NA,NA,""
"image-keyboard-response",367,426874,"0.0-3.118-2.118","fc60n7tg2jdxje4",784,"60.csv","","null","resources/images/coin2.png","null","",NA,NA,NA,NA,""
"image-keyboard-response",368,427412,"0.0-3.119-0.119","fc60n7tg2jdxje4",784,"60.csv","","536","resources/trios/L1T1A3.jpg","37","restless",0.5,0.7,0.3,0.788663605375694,"false"
"image-keyboard-response",369,427814,"0.0-3.119-1.119","fc60n7tg2jdxje4",784,"60.csv","","null","resources/maskTrios/L1BB.jpg","null","",NA,NA,NA,NA,""
"image-keyboard-response",370,429016,"0.0-3.119-2.119","fc60n7tg2jdxje4",784,"60.csv","","null","resources/images/fishbone.png","null","",NA,NA,NA,NA,""
"image-keyboard-response",371,429464,"0.0-3.120-0.120","fc60n7tg2jdxje4",784,"60.csv","","446","resources/trios/L2T1A3.jpg","37","restless",0.5,0.7,0.2,0.619468839598973,"false"
"image-keyboard-response",372,429866,"0.0-3.120-1.120","fc60n7tg2jdxje4",784,"60.csv","","null","resources/maskTrios/L2BB.jpg","null","",NA,NA,NA,NA,""
"image-keyboard-response",373,431068,"0.0-3.120-2.120","fc60n7tg2jdxje4",784,"60.csv","","null","resources/images/fishbone.png","null","",NA,NA,NA,NA,""
"image-keyboard-response",374,434028,"0.0-3.121-0.121","fc60n7tg2jdxje4",784,"60.csv","","2958","resources/trios/L1T2A1.jpg","38","restless",0.5,0.7,0.2,0.765594871449161,"false"
"image-keyboard-response",375,434430,"0.0-3.121-1.121","fc60n7tg2jdxje4",784,"60.csv","","null","resources/maskTrios/BT2B.jpg","null","",NA,NA,NA,NA,""
"image-keyboard-response",376,435632,"0.0-3.121-2.121","fc60n7tg2jdxje4",784,"60.csv","","null","resources/images/fishbone.png","null","",NA,NA,NA,NA,""
"image-keyboard-response",377,435982,"0.0-3.122-0.122","fc60n7tg2jdxje4",784,"60.csv","","348","resources/trios/L2T1A1.jpg","39","restless",0.5,0.7,0.2,0.342642450927327,"false"
"image-keyboard-response",378,436384,"0.0-3.122-1.122","fc60n7tg2jdxje4",784,"60.csv","","null","resources/maskTrios/BBA1.jpg","null","",NA,NA,NA,NA,""
"image-keyboard-response",379,437586,"0.0-3.122-2.122","fc60n7tg2jdxje4",784,"60.csv","","null","resources/images/fishbone.png","null","",NA,NA,NA,NA,""
"image-keyboard-response",380,437671,"0.0-3.123-0.123","fc60n7tg2jdxje4",784,"60.csv","","81","resources/trios/L1T2A3.jpg","37","restless",0.5,0.7,0.2,0.580405968761875,"false"
"image-keyboard-response",381,438073,"0.0-3.123-1.123","fc60n7tg2jdxje4",784,"60.csv","","null","resources/maskTrios/L1BB.jpg","null","",NA,NA,NA,NA,""
"image-keyboard-response",382,439276,"0.0-3.123-2.123","fc60n7tg2jdxje4",784,"60.csv","","null","resources/images/fishbone.png","null","",NA,NA,NA,NA,""
"image-keyboard-response",383,439483,"0.0-3.124-0.124","fc60n7tg2jdxje4",784,"60.csv","","205","resources/trios/L1T1A1.jpg","37","restless",0.5,0.7,0.2,0.957695564472924,"false"
"image-keyboard-response",384,439885,"0.0-3.124-1.124","fc60n7tg2jdxje4",784,"60.csv","","null","resources/maskTrios/L1BB.jpg","null","",NA,NA,NA,NA,""
"image-keyboard-response",385,441087,"0.0-3.124-2.124","fc60n7tg2jdxje4",784,"60.csv","","null","resources/images/fishbone.png","null","",NA,NA,NA,NA,""
"image-keyboard-response",386,442606,"0.0-3.125-0.125","fc60n7tg2jdxje4",784,"60.csv","","1517","resources/trios/L2T2A1.jpg","37","restless",0.5,0.7,0.2,0.741583807091132,"false"
"image-keyboard-response",387,443008,"0.0-3.125-1.125","fc60n7tg2jdxje4",784,"60.csv","","null","resources/maskTrios/L2BB.jpg","null","",NA,NA,NA,NA,""
"image-keyboard-response",388,444210,"0.0-3.125-2.125","fc60n7tg2jdxje4",784,"60.csv","","null","resources/images/fishbone.png","null","",NA,NA,NA,NA,""
"image-keyboard-response",389,444960,"0.0-3.126-0.126","fc60n7tg2jdxje4",784,"60.csv","","747.9999999999418","resources/trios/L1T2A1.jpg","38","restless",0.5,0.7,0.2,0.315372843215385,"true"
"image-keyboard-response",390,445362,"0.0-3.126-1.126","fc60n7tg2jdxje4",784,"60.csv","","null","resources/maskTrios/BT2B.jpg","null","",NA,NA,NA,NA,""
"image-keyboard-response",391,446565,"0.0-3.126-2.126","fc60n7tg2jdxje4",784,"60.csv","","null","resources/images/coin2.png","null","",NA,NA,NA,NA,""
"image-keyboard-response",392,460508,"0.0-3.127-0.127","fc60n7tg2jdxje4",784,"60.csv","","13942.000000000058","resources/trios/L1T2A3.jpg","38","restless",0.5,0.7,0.2,0.158435457149354,"true"
"image-keyboard-response",393,460910,"0.0-3.127-1.127","fc60n7tg2jdxje4",784,"60.csv","","null","resources/maskTrios/BT2B.jpg","null","",NA,NA,NA,NA,""
"image-keyboard-response",394,462112,"0.0-3.127-2.127","fc60n7tg2jdxje4",784,"60.csv","","null","resources/images/coin2.png","null","",NA,NA,NA,NA,""
"image-keyboard-response",395,462523,"0.0-3.128-0.128","fc60n7tg2jdxje4",784,"60.csv","","409","resources/trios/L2T2A1.jpg","38","restless",0.5,0.7,0.2,0.660921407225669,"true"
"image-keyboard-response",396,462925,"0.0-3.128-1.128","fc60n7tg2jdxje4",784,"60.csv","","null","resources/maskTrios/BT2B.jpg","null","",NA,NA,NA,NA,""
"image-keyboard-response",397,464127,"0.0-3.128-2.128","fc60n7tg2jdxje4",784,"60.csv","","null","resources/images/coin2.png","null","",NA,NA,NA,NA,""
"image-keyboard-response",398,464484,"0.0-3.129-0.129","fc60n7tg2jdxje4",784,"60.csv","","355","resources/trios/L1T1A3.jpg","38","restless",0.5,0.7,0.2,0.721809985706121,"false"
"image-keyboard-response",399,464887,"0.0-3.129-1.129","fc60n7tg2jdxje4",784,"60.csv","","null","resources/maskTrios/BT1B.jpg","null","",NA,NA,NA,NA,""
"image-keyboard-response",400,466089,"0.0-3.129-2.129","fc60n7tg2jdxje4",784,"60.csv","","null","resources/images/fishbone.png","null","",NA,NA,NA,NA,""
"image-keyboard-response",401,466227,"0.0-3.130-0.130","fc60n7tg2jdxje4",784,"60.csv","","136","resources/trios/L2T2A1.jpg","37","restless",0.4,0.6,0.2,0.942374249174116,"false"
"image-keyboard-response",402,466629,"0.0-3.130-1.130","fc60n7tg2jdxje4",784,"60.csv","","null","resources/maskTrios/L2BB.jpg","null","",NA,NA,NA,NA,""
"image-keyboard-response",403,467831,"0.0-3.130-2.130","fc60n7tg2jdxje4",784,"60.csv","","null","resources/images/fishbone.png","null","",NA,NA,NA,NA,""
"image-keyboard-response",404,468035,"0.0-3.131-0.131","fc60n7tg2jdxje4",784,"60.csv","","203","resources/trios/L1T2A1.jpg","39","restless",0.4,0.6,0.2,0.450033308864572,"false"
"image-keyboard-response",405,468437,"0.0-3.131-1.131","fc60n7tg2jdxje4",784,"60.csv","","null","resources/maskTrios/BBA1.jpg","null","",NA,NA,NA,NA,""
"image-keyboard-response",406,469640,"0.0-3.131-2.131","fc60n7tg2jdxje4",784,"60.csv","","null","resources/images/fishbone.png","null","",NA,NA,NA,NA,""
"image-keyboard-response",407,469655,"0.0-3.132-0.132","fc60n7tg2jdxje4",784,"60.csv","","14","resources/trios/L2T2A3.jpg","37","restless",0.4,0.6,0.2,0.0533690514297794,"true"
"image-keyboard-response",408,470057,"0.0-3.132-1.132","fc60n7tg2jdxje4",784,"60.csv","","null","resources/maskTrios/L2BB.jpg","null","",NA,NA,NA,NA,""
"image-keyboard-response",409,471260,"0.0-3.132-2.132","fc60n7tg2jdxje4",784,"60.csv","","null","resources/images/coin2.png","null","",NA,NA,NA,NA,""
"image-keyboard-response",410,471577,"0.0-3.133-0.133","fc60n7tg2jdxje4",784,"60.csv","","316","resources/trios/L2T1A1.jpg","37","restless",0.4,0.6,0.2,0.998129556734849,"false"
"image-keyboard-response",411,471979,"0.0-3.133-1.133","fc60n7tg2jdxje4",784,"60.csv","","null","resources/maskTrios/L2BB.jpg","null","",NA,NA,NA,NA,""
"image-keyboard-response",412,473182,"0.0-3.133-2.133","fc60n7tg2jdxje4",784,"60.csv","","null","resources/images/fishbone.png","null","",NA,NA,NA,NA,""
"image-keyboard-response",413,474129,"0.0-3.134-0.134","fc60n7tg2jdxje4",784,"60.csv","","946","resources/trios/L2T2A1.jpg","38","restless",0.5,0.6,0.2,0.627425079301294,"false"
"image-keyboard-response",414,474532,"0.0-3.134-1.134","fc60n7tg2jdxje4",784,"60.csv","","null","resources/maskTrios/BT2B.jpg","null","",NA,NA,NA,NA,""
"image-keyboard-response",415,475734,"0.0-3.134-2.134","fc60n7tg2jdxje4",784,"60.csv","","null","resources/images/fishbone.png","null","",NA,NA,NA,NA,""
"image-keyboard-response",416,476002,"0.0-3.135-0.135","fc60n7tg2jdxje4",784,"60.csv","","267","resources/trios/L2T2A1.jpg","37","restless",0.5,0.6,0.2,0.472208543412221,"true"
"image-keyboard-response",417,476405,"0.0-3.135-1.135","fc60n7tg2jdxje4",784,"60.csv","","null","resources/maskTrios/L2BB.jpg","null","",NA,NA,NA,NA,""
"image-keyboard-response",418,477607,"0.0-3.135-2.135","fc60n7tg2jdxje4",784,"60.csv","","null","resources/images/coin2.png","null","",NA,NA,NA,NA,""
"image-keyboard-response",419,477944,"0.0-3.136-0.136","fc60n7tg2jdxje4",784,"60.csv","","335.0000000000582","resources/trios/L2T1A1.jpg","37","restless",0.5,0.6,0.2,0.699363578305462,"false"
"image-keyboard-response",420,478346,"0.0-3.136-1.136","fc60n7tg2jdxje4",784,"60.csv","","null","resources/maskTrios/L2BB.jpg","null","",NA,NA,NA,NA,""
"image-keyboard-response",421,479547,"0.0-3.136-2.136","fc60n7tg2jdxje4",784,"60.csv","","null","resources/images/fishbone.png","null","",NA,NA,NA,NA,""
"image-keyboard-response",422,479816,"0.0-3.137-0.137","fc60n7tg2jdxje4",784,"60.csv","","268","resources/trios/L1T1A1.jpg","39","restless",0.5,0.5,0.2,0.523646421685351,"false"
"image-keyboard-response",423,480218,"0.0-3.137-1.137","fc60n7tg2jdxje4",784,"60.csv","","null","resources/maskTrios/BBA1.jpg","null","",NA,NA,NA,NA,""
"image-keyboard-response",424,481419,"0.0-3.137-2.137","fc60n7tg2jdxje4",784,"60.csv","","null","resources/images/fishbone.png","null","",NA,NA,NA,NA,""
"image-keyboard-response",425,482132,"0.0-3.138-0.138","fc60n7tg2jdxje4",784,"60.csv","","710","resources/trios/L2T1A3.jpg","38","restless",0.4,0.5,0.2,0.521483912411037,"false"
"image-keyboard-response",426,482534,"0.0-3.138-1.138","fc60n7tg2jdxje4",784,"60.csv","","null","resources/maskTrios/BT1B.jpg","null","",NA,NA,NA,NA,""
"image-keyboard-response",427,483735,"0.0-3.138-2.138","fc60n7tg2jdxje4",784,"60.csv","","null","resources/images/fishbone.png","null","",NA,NA,NA,NA,""
"image-keyboard-response",428,484576,"0.0-3.139-0.139","fc60n7tg2jdxje4",784,"60.csv","","839.9999999999418","resources/trios/L2T2A1.jpg","38","restless",0.4,0.5,0.2,0.0855251767341518,"true"
"image-keyboard-response",429,484978,"0.0-3.139-1.139","fc60n7tg2jdxje4",784,"60.csv","","null","resources/maskTrios/BT2B.jpg","null","",NA,NA,NA,NA,""
"image-keyboard-response",430,486181,"0.0-3.139-2.139","fc60n7tg2jdxje4",784,"60.csv","","null","resources/images/coin2.png","null","",NA,NA,NA,NA,""
"image-keyboard-response",431,486588,"0.0-3.140-0.140","fc60n7tg2jdxje4",784,"60.csv","","406","resources/trios/L1T2A1.jpg","38","restless",0.4,0.5,0.2,0.764214367929962,"false"
"image-keyboard-response",432,486992,"0.0-3.140-1.140","fc60n7tg2jdxje4",784,"60.csv","","null","resources/maskTrios/BT2B.jpg","null","",NA,NA,NA,NA,""
"image-keyboard-response",433,488194,"0.0-3.140-2.140","fc60n7tg2jdxje4",784,"60.csv","","null","resources/images/fishbone.png","null","",NA,NA,NA,NA,""
"image-keyboard-response",434,489288,"0.0-3.141-0.141","fc60n7tg2jdxje4",784,"60.csv","","1093","resources/trios/L2T2A1.jpg","38","restless",0.4,0.5,0.2,0.224967289775575,"true"
"image-keyboard-response",435,489691,"0.0-3.141-1.141","fc60n7tg2jdxje4",784,"60.csv","","null","resources/maskTrios/BT2B.jpg","null","",NA,NA,NA,NA,""
"image-keyboard-response",436,490893,"0.0-3.141-2.141","fc60n7tg2jdxje4",784,"60.csv","","null","resources/images/coin2.png","null","",NA,NA,NA,NA,""
"image-keyboard-response",437,491663,"0.0-3.142-0.142","fc60n7tg2jdxje4",784,"60.csv","","766.9999999999418","resources/trios/L2T1A3.jpg","38","restless",0.4,0.5,0.2,0.471854843048764,"true"
"image-keyboard-response",438,492065,"0.0-3.142-1.142","fc60n7tg2jdxje4",784,"60.csv","","null","resources/maskTrios/BT1B.jpg","null","",NA,NA,NA,NA,""
"image-keyboard-response",439,493267,"0.0-3.142-2.142","fc60n7tg2jdxje4",784,"60.csv","","null","resources/images/coin2.png","null","",NA,NA,NA,NA,""
"image-keyboard-response",440,494400,"0.0-3.143-0.143","fc60n7tg2jdxje4",784,"60.csv","","1131","resources/trios/L2T2A3.jpg","38","restless",0.4,0.5,0.2,0.560420543689227,"false"
"image-keyboard-response",441,494802,"0.0-3.143-1.143","fc60n7tg2jdxje4",784,"60.csv","","null","resources/maskTrios/BT2B.jpg","null","",NA,NA,NA,NA,""
"image-keyboard-response",442,496005,"0.0-3.143-2.143","fc60n7tg2jdxje4",784,"60.csv","","null","resources/images/fishbone.png","null","",NA,NA,NA,NA,""
"image-keyboard-response",443,496081,"0.0-3.144-0.144","fc60n7tg2jdxje4",784,"60.csv","","75","resources/trios/L1T2A1.jpg","37","restless",0.4,0.5,0.2,0.919873074016189,"false"
"image-keyboard-response",444,496484,"0.0-3.144-1.144","fc60n7tg2jdxje4",784,"60.csv","","null","resources/maskTrios/L1BB.jpg","null","",NA,NA,NA,NA,""
"image-keyboard-response",445,497686,"0.0-3.144-2.144","fc60n7tg2jdxje4",784,"60.csv","","null","resources/images/fishbone.png","null","",NA,NA,NA,NA,""
"image-keyboard-response",446,498232,"0.0-3.145-0.145","fc60n7tg2jdxje4",784,"60.csv","","544","resources/trios/L1T1A1.jpg","39","restless",0.4,0.5,0.2,0.475209327125787,"false"
"image-keyboard-response",447,498634,"0.0-3.145-1.145","fc60n7tg2jdxje4",784,"60.csv","","null","resources/maskTrios/BBA1.jpg","null","",NA,NA,NA,NA,""
"image-keyboard-response",448,499836,"0.0-3.145-2.145","fc60n7tg2jdxje4",784,"60.csv","","null","resources/images/fishbone.png","null","",NA,NA,NA,NA,""
"image-keyboard-response",449,500671,"0.0-3.146-0.146","fc60n7tg2jdxje4",784,"60.csv","","832.9999999999418","resources/trios/L1T1A3.jpg","38","restless",0.4,0.5,0.2,0.800971122611613,"false"
"image-keyboard-response",450,501074,"0.0-3.146-1.146","fc60n7tg2jdxje4",784,"60.csv","","null","resources/maskTrios/BT1B.jpg","null","",NA,NA,NA,NA,""
"image-keyboard-response",451,502276,"0.0-3.146-2.146","fc60n7tg2jdxje4",784,"60.csv","","null","resources/images/fishbone.png","null","",NA,NA,NA,NA,""
"image-keyboard-response",452,502770,"0.0-3.147-0.147","fc60n7tg2jdxje4",784,"60.csv","","493","resources/trios/L1T2A3.jpg","38","restless",0.4,0.5,0.2,0.218212031895331,"true"
"image-keyboard-response",453,503172,"0.0-3.147-1.147","fc60n7tg2jdxje4",784,"60.csv","","null","resources/maskTrios/BT2B.jpg","null","",NA,NA,NA,NA,""
"image-keyboard-response",454,504375,"0.0-3.147-2.147","fc60n7tg2jdxje4",784,"60.csv","","null","resources/images/coin2.png","null","",NA,NA,NA,NA,""
"image-keyboard-response",455,506649,"0.0-3.148-0.148","fc60n7tg2jdxje4",784,"60.csv","","2272.9999999998836","resources/trios/L1T1A3.jpg","38","restless",0.4,0.5,0.2,0.19053510214938,"true"
"image-keyboard-response",456,507051,"0.0-3.148-1.148","fc60n7tg2jdxje4",784,"60.csv","","null","resources/maskTrios/BT1B.jpg","null","",NA,NA,NA,NA,""
"image-keyboard-response",457,508254,"0.0-3.148-2.148","fc60n7tg2jdxje4",784,"60.csv","","null","resources/images/coin2.png","null","",NA,NA,NA,NA,""
"image-keyboard-response",458,511652,"0.0-3.149-0.149","fc60n7tg2jdxje4",784,"60.csv","","3396.999999999942","resources/trios/L2T1A3.jpg","38","restless",0.4,0.5,0.2,0.33225670453433,"true"
"image-keyboard-response",459,512056,"0.0-3.149-1.149","fc60n7tg2jdxje4",784,"60.csv","","null","resources/maskTrios/BT1B.jpg","null","",NA,NA,NA,NA,""
"image-keyboard-response",460,513259,"0.0-3.149-2.149","fc60n7tg2jdxje4",784,"60.csv","","null","resources/images/coin2.png","null","",NA,NA,NA,NA,""
"image-keyboard-response",461,513764,"0.0-3.150-0.150","fc60n7tg2jdxje4",784,"60.csv","","504","resources/trios/L1T2A1.jpg","38","restless",0.4,0.4,0.2,0.0495506007694693,"true"
"image-keyboard-response",462,514167,"0.0-3.150-1.150","fc60n7tg2jdxje4",784,"60.csv","","null","resources/maskTrios/BT2B.jpg","null","",NA,NA,NA,NA,""
"image-keyboard-response",463,515369,"0.0-3.150-2.150","fc60n7tg2jdxje4",784,"60.csv","","null","resources/images/coin2.png","null","",NA,NA,NA,NA,""
"image-keyboard-response",464,517790,"0.0-3.151-0.151","fc60n7tg2jdxje4",784,"60.csv","","2418.999999999942","resources/trios/L2T2A1.jpg","38","restless",0.4,0.4,0.2,0.696112831879971,"false"
"image-keyboard-response",465,518192,"0.0-3.151-1.151","fc60n7tg2jdxje4",784,"60.csv","","null","resources/maskTrios/BT2B.jpg","null","",NA,NA,NA,NA,""
"image-keyboard-response",466,519394,"0.0-3.151-2.151","fc60n7tg2jdxje4",784,"60.csv","","null","resources/images/fishbone.png","null","",NA,NA,NA,NA,""
"image-keyboard-response",467,540756,"0.0-3.152-0.152","fc60n7tg2jdxje4",784,"60.csv","","21360.000000000116","resources/trios/L1T2A1.jpg","37","restless",0.4,0.4,0.2,0.0710550230188021,"true"
"image-keyboard-response",468,541160,"0.0-3.152-1.152","fc60n7tg2jdxje4",784,"60.csv","","null","resources/maskTrios/L1BB.jpg","null","",NA,NA,NA,NA,""
"image-keyboard-response",469,542362,"0.0-3.152-2.152","fc60n7tg2jdxje4",784,"60.csv","","null","resources/images/coin2.png","null","",NA,NA,NA,NA,""
"image-keyboard-response",470,543282,"0.0-3.153-0.153","fc60n7tg2jdxje4",784,"60.csv","","919","resources/trios/L1T1A3.jpg","37","restless",0.4,0.4,0.2,0.895447042610171,"false"
"image-keyboard-response",471,543683,"0.0-3.153-1.153","fc60n7tg2jdxje4",784,"60.csv","","null","resources/maskTrios/L1BB.jpg","null","",NA,NA,NA,NA,""
"image-keyboard-response",472,544885,"0.0-3.153-2.153","fc60n7tg2jdxje4",784,"60.csv","","null","resources/images/fishbone.png","null","",NA,NA,NA,NA,""
"image-keyboard-response",473,545552,"0.0-3.154-0.154","fc60n7tg2jdxje4",784,"60.csv","","665","resources/trios/L2T2A1.jpg","38","restless",0.5,0.4,0.2,0.856791343616651,"false"
"image-keyboard-response",474,545954,"0.0-3.154-1.154","fc60n7tg2jdxje4",784,"60.csv","","null","resources/maskTrios/BT2B.jpg","null","",NA,NA,NA,NA,""
"image-keyboard-response",475,547155,"0.0-3.154-2.154","fc60n7tg2jdxje4",784,"60.csv","","null","resources/images/fishbone.png","null","",NA,NA,NA,NA,""
"image-keyboard-response",476,547834,"0.0-3.155-0.155","fc60n7tg2jdxje4",784,"60.csv","","678","resources/trios/L1T1A3.jpg","37","restless",0.5,0.4,0.2,0.236280374766133,"true"
"image-keyboard-response",477,548237,"0.0-3.155-1.155","fc60n7tg2jdxje4",784,"60.csv","","null","resources/maskTrios/L1BB.jpg","null","",NA,NA,NA,NA,""
"image-keyboard-response",478,549442,"0.0-3.155-2.155","fc60n7tg2jdxje4",784,"60.csv","","null","resources/images/coin2.png","null","",NA,NA,NA,NA,""
"image-keyboard-response",479,549474,"0.0-3.156-0.156","fc60n7tg2jdxje4",784,"60.csv","","30","resources/trios/L1T1A3.jpg","37","restless",0.5,0.4,0.2,0.895449669775758,"false"
"image-keyboard-response",480,549877,"0.0-3.156-1.156","fc60n7tg2jdxje4",784,"60.csv","","null","resources/maskTrios/L1BB.jpg","null","",NA,NA,NA,NA,""
"image-keyboard-response",481,551078,"0.0-3.156-2.156","fc60n7tg2jdxje4",784,"60.csv","","null","resources/images/fishbone.png","null","",NA,NA,NA,NA,""
"image-keyboard-response",482,552024,"0.0-3.157-0.157","fc60n7tg2jdxje4",784,"60.csv","","945","resources/trios/L2T1A3.jpg","38","restless",0.5,0.4,0.2,0.69625605042951,"false"
"image-keyboard-response",483,552426,"0.0-3.157-1.157","fc60n7tg2jdxje4",784,"60.csv","","null","resources/maskTrios/BT1B.jpg","null","",NA,NA,NA,NA,""
"image-keyboard-response",484,553628,"0.0-3.157-2.157","fc60n7tg2jdxje4",784,"60.csv","","null","resources/images/fishbone.png","null","",NA,NA,NA,NA,""
"image-keyboard-response",485,555936,"0.0-3.158-0.158","fc60n7tg2jdxje4",784,"60.csv","","2306","resources/trios/L2T2A3.jpg","38","restless",0.6,0.4,0.2,0.748643458377948,"false"
"image-keyboard-response",486,556338,"0.0-3.158-1.158","fc60n7tg2jdxje4",784,"60.csv","","null","resources/maskTrios/BT2B.jpg","null","",NA,NA,NA,NA,""
"image-keyboard-response",487,557541,"0.0-3.158-2.158","fc60n7tg2jdxje4",784,"60.csv","","null","resources/images/fishbone.png","null","",NA,NA,NA,NA,""
"image-keyboard-response",488,557946,"0.0-3.159-0.159","fc60n7tg2jdxje4",784,"60.csv","","403","resources/trios/L2T2A1.jpg","37","restless",0.7,0.4,0.2,0.423107996428227,"true"
"image-keyboard-response",489,558348,"0.0-3.159-1.159","fc60n7tg2jdxje4",784,"60.csv","","null","resources/maskTrios/L2BB.jpg","null","",NA,NA,NA,NA,""
"image-keyboard-response",490,559550,"0.0-3.159-2.159","fc60n7tg2jdxje4",784,"60.csv","","null","resources/images/coin2.png","null","",NA,NA,NA,NA,""
"image-keyboard-response",491,562974,"0.0-3.160-0.160","fc60n7tg2jdxje4",784,"60.csv","","3423","resources/trios/L2T1A3.jpg","37","restless",0.7,0.4,0.2,0.48609135799863,"true"
"image-keyboard-response",492,563376,"0.0-3.160-1.160","fc60n7tg2jdxje4",784,"60.csv","","null","resources/maskTrios/L2BB.jpg","null","",NA,NA,NA,NA,""
"image-keyboard-response",493,564578,"0.0-3.160-2.160","fc60n7tg2jdxje4",784,"60.csv","","null","resources/images/coin2.png","null","",NA,NA,NA,NA,""
"image-keyboard-response",494,565384,"0.0-3.161-0.161","fc60n7tg2jdxje4",784,"60.csv","","804","resources/trios/L1T1A1.jpg","37","restless",0.7,0.4,0.2,0.447736648109067,"true"
"image-keyboard-response",495,565785,"0.0-3.161-1.161","fc60n7tg2jdxje4",784,"60.csv","","null","resources/maskTrios/L1BB.jpg","null","",NA,NA,NA,NA,""
"image-keyboard-response",496,566987,"0.0-3.161-2.161","fc60n7tg2jdxje4",784,"60.csv","","null","resources/images/coin2.png","null","",NA,NA,NA,NA,""
"image-keyboard-response",497,568161,"0.0-3.162-0.162","fc60n7tg2jdxje4",784,"60.csv","","1174","resources/trios/L1T1A1.jpg","37","restless",0.7,0.4,0.3,0.905468921335865,"false"
"image-keyboard-response",498,568563,"0.0-3.162-1.162","fc60n7tg2jdxje4",784,"60.csv","","null","resources/maskTrios/L1BB.jpg","null","",NA,NA,NA,NA,""
"image-keyboard-response",499,569765,"0.0-3.162-2.162","fc60n7tg2jdxje4",784,"60.csv","","null","resources/images/fishbone.png","null","",NA,NA,NA,NA,""
"image-keyboard-response",500,570823,"0.0-3.163-0.163","fc60n7tg2jdxje4",784,"60.csv","","1057","resources/trios/L1T1A1.jpg","38","restless",0.7,0.4,0.3,0.42929516060556,"false"
"image-keyboard-response",501,571224,"0.0-3.163-1.163","fc60n7tg2jdxje4",784,"60.csv","","null","resources/maskTrios/BT1B.jpg","null","",NA,NA,NA,NA,""
"image-keyboard-response",502,572425,"0.0-3.163-2.163","fc60n7tg2jdxje4",784,"60.csv","","null","resources/images/fishbone.png","null","",NA,NA,NA,NA,""
"image-keyboard-response",503,572908,"0.0-3.164-0.164","fc60n7tg2jdxje4",784,"60.csv","","483","resources/trios/L2T1A1.jpg","37","restless",0.7,0.4,0.3,0.946139660581874,"false"
"image-keyboard-response",504,573310,"0.0-3.164-1.164","fc60n7tg2jdxje4",784,"60.csv","","null","resources/maskTrios/L2BB.jpg","null","",NA,NA,NA,NA,""
"image-keyboard-response",505,574512,"0.0-3.164-2.164","fc60n7tg2jdxje4",784,"60.csv","","null","resources/images/fishbone.png","null","",NA,NA,NA,NA,""
"image-keyboard-response",506,574702,"0.0-3.165-0.165","fc60n7tg2jdxje4",784,"60.csv","","187","resources/trios/L1T1A1.jpg","37","restless",0.7,0.4,0.3,0.204643353714338,"true"
"image-keyboard-response",507,575104,"0.0-3.165-1.165","fc60n7tg2jdxje4",784,"60.csv","","null","resources/maskTrios/L1BB.jpg","null","",NA,NA,NA,NA,""
"image-keyboard-response",508,576306,"0.0-3.165-2.165","fc60n7tg2jdxje4",784,"60.csv","","null","resources/images/coin2.png","null","",NA,NA,NA,NA,""
"image-keyboard-response",509,576619,"0.0-3.166-0.166","fc60n7tg2jdxje4",784,"60.csv","","311","resources/trios/L2T1A3.jpg","37","restless",0.7,0.4,0.3,0.415375106828247,"true"
"image-keyboard-response",510,577021,"0.0-3.166-1.166","fc60n7tg2jdxje4",784,"60.csv","","null","resources/maskTrios/L2BB.jpg","null","",NA,NA,NA,NA,""
"image-keyboard-response",511,578222,"0.0-3.166-2.166","fc60n7tg2jdxje4",784,"60.csv","","null","resources/images/coin2.png","null","",NA,NA,NA,NA,""
"image-keyboard-response",512,578617,"0.0-3.167-0.167","fc60n7tg2jdxje4",784,"60.csv","","393","resources/trios/L2T2A3.jpg","37","restless",0.7,0.4,0.3,0.348224729545633,"true"
"image-keyboard-response",513,579019,"0.0-3.167-1.167","fc60n7tg2jdxje4",784,"60.csv","","null","resources/maskTrios/L2BB.jpg","null","",NA,NA,NA,NA,""
"image-keyboard-response",514,580222,"0.0-3.167-2.167","fc60n7tg2jdxje4",784,"60.csv","","null","resources/images/coin2.png","null","",NA,NA,NA,NA,""
"image-keyboard-response",515,581266,"0.0-3.168-0.168","fc60n7tg2jdxje4",784,"60.csv","","1042","resources/trios/L1T1A1.jpg","37","restless",0.7,0.4,0.3,0.83469762039659,"false"
"image-keyboard-response",516,581668,"0.0-3.168-1.168","fc60n7tg2jdxje4",784,"60.csv","","null","resources/maskTrios/L1BB.jpg","null","",NA,NA,NA,NA,""
"image-keyboard-response",517,582870,"0.0-3.168-2.168","fc60n7tg2jdxje4",784,"60.csv","","null","resources/images/fishbone.png","null","",NA,NA,NA,NA,""
"image-keyboard-response",518,583218,"0.0-3.169-0.169","fc60n7tg2jdxje4",784,"60.csv","","346","resources/trios/L1T2A3.jpg","37","restless",0.7,0.4,0.4,0.267547234363747,"true"
"image-keyboard-response",519,583620,"0.0-3.169-1.169","fc60n7tg2jdxje4",784,"60.csv","","null","resources/maskTrios/L1BB.jpg","null","",NA,NA,NA,NA,""
"image-keyboard-response",520,584823,"0.0-3.169-2.169","fc60n7tg2jdxje4",784,"60.csv","","null","resources/images/coin2.png","null","",NA,NA,NA,NA,""
"image-keyboard-response",521,585421,"0.0-3.170-0.170","fc60n7tg2jdxje4",784,"60.csv","","597","resources/trios/L2T2A3.jpg","37","restless",0.7,0.4,0.4,0.107734536774375,"true"
"image-keyboard-response",522,585824,"0.0-3.170-1.170","fc60n7tg2jdxje4",784,"60.csv","","null","resources/maskTrios/L2BB.jpg","null","",NA,NA,NA,NA,""
"image-keyboard-response",523,587026,"0.0-3.170-2.170","fc60n7tg2jdxje4",784,"60.csv","","null","resources/images/coin2.png","null","",NA,NA,NA,NA,""
"image-keyboard-response",524,587487,"0.0-3.171-0.171","fc60n7tg2jdxje4",784,"60.csv","","460.0000000001164","resources/trios/L2T1A1.jpg","37","restless",0.7,0.4,0.5,0.308699316691192,"true"
"image-keyboard-response",525,587890,"0.0-3.171-1.171","fc60n7tg2jdxje4",784,"60.csv","","null","resources/maskTrios/L2BB.jpg","null","",NA,NA,NA,NA,""
"image-keyboard-response",526,589091,"0.0-3.171-2.171","fc60n7tg2jdxje4",784,"60.csv","","null","resources/images/coin2.png","null","",NA,NA,NA,NA,""
"image-keyboard-response",527,589499,"0.0-3.172-0.172","fc60n7tg2jdxje4",784,"60.csv","","407","resources/trios/L2T2A1.jpg","37","restless",0.6,0.4,0.5,0.000737512896174963,"true"
"image-keyboard-response",528,589904,"0.0-3.172-1.172","fc60n7tg2jdxje4",784,"60.csv","","null","resources/maskTrios/L2BB.jpg","null","",NA,NA,NA,NA,""
"image-keyboard-response",529,591107,"0.0-3.172-2.172","fc60n7tg2jdxje4",784,"60.csv","","null","resources/images/coin2.png","null","",NA,NA,NA,NA,""
"image-keyboard-response",530,591939,"0.0-3.173-0.173","fc60n7tg2jdxje4",784,"60.csv","","830","resources/trios/L1T2A3.jpg","37","restless",0.6,0.4,0.5,0.15008468271519,"true"
"image-keyboard-response",531,592341,"0.0-3.173-1.173","fc60n7tg2jdxje4",784,"60.csv","","null","resources/maskTrios/L1BB.jpg","null","",NA,NA,NA,NA,""
"image-keyboard-response",532,593544,"0.0-3.173-2.173","fc60n7tg2jdxje4",784,"60.csv","","null","resources/images/coin2.png","null","",NA,NA,NA,NA,""
"image-keyboard-response",533,594019,"0.0-3.174-0.174","fc60n7tg2jdxje4",784,"60.csv","","473","resources/trios/L2T1A3.jpg","37","restless",0.6,0.4,0.5,0.086629336919354,"true"
"image-keyboard-response",534,594421,"0.0-3.174-1.174","fc60n7tg2jdxje4",784,"60.csv","","null","resources/maskTrios/L2BB.jpg","null","",NA,NA,NA,NA,""
"image-keyboard-response",535,595623,"0.0-3.174-2.174","fc60n7tg2jdxje4",784,"60.csv","","null","resources/images/coin2.png","null","",NA,NA,NA,NA,""
"image-keyboard-response",536,599685,"0.0-3.175-0.175","fc60n7tg2jdxje4",784,"60.csv","","4061","resources/trios/L1T2A1.jpg","37","restless",0.7,0.4,0.5,0.746418851760786,"false"
"image-keyboard-response",537,600090,"0.0-3.175-1.175","fc60n7tg2jdxje4",784,"60.csv","","null","resources/maskTrios/L1BB.jpg","null","",NA,NA,NA,NA,""
"image-keyboard-response",538,601292,"0.0-3.175-2.175","fc60n7tg2jdxje4",784,"60.csv","","null","resources/images/fishbone.png","null","",NA,NA,NA,NA,""
"image-keyboard-response",539,601603,"0.0-3.176-0.176","fc60n7tg2jdxje4",784,"60.csv","","310","resources/trios/L2T1A1.jpg","37","restless",0.7,0.4,0.5,0.511264453322812,"true"
"image-keyboard-response",540,602006,"0.0-3.176-1.176","fc60n7tg2jdxje4",784,"60.csv","","null","resources/maskTrios/L2BB.jpg","null","",NA,NA,NA,NA,""
"image-keyboard-response",541,603208,"0.0-3.176-2.176","fc60n7tg2jdxje4",784,"60.csv","","null","resources/images/coin2.png","null","",NA,NA,NA,NA,""
"image-keyboard-response",542,603783,"0.0-3.177-0.177","fc60n7tg2jdxje4",784,"60.csv","","573","resources/trios/L1T1A3.jpg","37","restless",0.7,0.4,0.5,0.449596706341791,"true"
"image-keyboard-response",543,604185,"0.0-3.177-1.177","fc60n7tg2jdxje4",784,"60.csv","","null","resources/maskTrios/L1BB.jpg","null","",NA,NA,NA,NA,""
"image-keyboard-response",544,605387,"0.0-3.177-2.177","fc60n7tg2jdxje4",784,"60.csv","","null","resources/images/coin2.png","null","",NA,NA,NA,NA,""
"image-keyboard-response",545,605800,"0.0-3.178-0.178","fc60n7tg2jdxje4",784,"60.csv","","412","resources/trios/L2T2A3.jpg","37","restless",0.7,0.4,0.5,0.559664148207022,"true"
"image-keyboard-response",546,606202,"0.0-3.178-1.178","fc60n7tg2jdxje4",784,"60.csv","","null","resources/maskTrios/L2BB.jpg","null","",NA,NA,NA,NA,""
"image-keyboard-response",547,607405,"0.0-3.178-2.178","fc60n7tg2jdxje4",784,"60.csv","","null","resources/images/coin2.png","null","",NA,NA,NA,NA,""
"image-keyboard-response",548,607735,"0.0-3.179-0.179","fc60n7tg2jdxje4",784,"60.csv","","329","resources/trios/L1T1A3.jpg","37","restless",0.7,0.4,0.5,0.368117845304306,"true"
"image-keyboard-response",549,608137,"0.0-3.179-1.179","fc60n7tg2jdxje4",784,"60.csv","","null","resources/maskTrios/L1BB.jpg","null","",NA,NA,NA,NA,""
"image-keyboard-response",550,609339,"0.0-3.179-2.179","fc60n7tg2jdxje4",784,"60.csv","","null","resources/images/coin2.png","null","",NA,NA,NA,NA,""
"image-keyboard-response",551,609703,"0.0-3.180-0.180","fc60n7tg2jdxje4",784,"60.csv","","362","resources/trios/L2T2A1.jpg","37","restless",0.7,0.4,0.5,0.929706543609872,"false"
"image-keyboard-response",552,610105,"0.0-3.180-1.180","fc60n7tg2jdxje4",784,"60.csv","","null","resources/maskTrios/L2BB.jpg","null","",NA,NA,NA,NA,""
"image-keyboard-response",553,611307,"0.0-3.180-2.180","fc60n7tg2jdxje4",784,"60.csv","","null","resources/images/fishbone.png","null","",NA,NA,NA,NA,""
"image-keyboard-response",554,611769,"0.0-3.181-0.181","fc60n7tg2jdxje4",784,"60.csv","","461","resources/trios/L1T2A3.jpg","37","restless",0.7,0.4,0.5,0.918608999082023,"false"
"image-keyboard-response",555,612171,"0.0-3.181-1.181","fc60n7tg2jdxje4",784,"60.csv","","null","resources/maskTrios/L1BB.jpg","null","",NA,NA,NA,NA,""
"image-keyboard-response",556,613373,"0.0-3.181-2.181","fc60n7tg2jdxje4",784,"60.csv","","null","resources/images/fishbone.png","null","",NA,NA,NA,NA,""
"image-keyboard-response",557,614370,"0.0-3.182-0.182","fc60n7tg2jdxje4",784,"60.csv","","994","resources/trios/L1T1A1.jpg","38","restless",0.7,0.4,0.5,0.342350849094224,"true"
"image-keyboard-response",558,614772,"0.0-3.182-1.182","fc60n7tg2jdxje4",784,"60.csv","","null","resources/maskTrios/BT1B.jpg","null","",NA,NA,NA,NA,""
"image-keyboard-response",559,615974,"0.0-3.182-2.182","fc60n7tg2jdxje4",784,"60.csv","","null","resources/images/coin2.png","null","",NA,NA,NA,NA,""
"image-keyboard-response",560,616383,"0.0-3.183-0.183","fc60n7tg2jdxje4",784,"60.csv","","408","resources/trios/L1T1A3.jpg","38","restless",0.7,0.4,0.5,0.995521859040985,"false"
"image-keyboard-response",561,616790,"0.0-3.183-1.183","fc60n7tg2jdxje4",784,"60.csv","","null","resources/maskTrios/BT1B.jpg","null","",NA,NA,NA,NA,""
"image-keyboard-response",562,617992,"0.0-3.183-2.183","fc60n7tg2jdxje4",784,"60.csv","","null","resources/images/fishbone.png","null","",NA,NA,NA,NA,""
"image-keyboard-response",563,618449,"0.0-3.184-0.184","fc60n7tg2jdxje4",784,"60.csv","","455","resources/trios/L1T1A1.jpg","38","restless",0.7,0.4,0.5,0.0109277814997296,"true"
"image-keyboard-response",564,618851,"0.0-3.184-1.184","fc60n7tg2jdxje4",784,"60.csv","","null","resources/maskTrios/BT1B.jpg","null","",NA,NA,NA,NA,""
"image-keyboard-response",565,620054,"0.0-3.184-2.184","fc60n7tg2jdxje4",784,"60.csv","","null","resources/images/coin2.png","null","",NA,NA,NA,NA,""
"image-keyboard-response",566,621451,"0.0-3.185-0.185","fc60n7tg2jdxje4",784,"60.csv","","1396","resources/trios/L2T2A1.jpg","38","restless",0.6,0.4,0.5,0.3488905522901,"true"
"image-keyboard-response",567,621854,"0.0-3.185-1.185","fc60n7tg2jdxje4",784,"60.csv","","null","resources/maskTrios/BT2B.jpg","null","",NA,NA,NA,NA,""
"image-keyboard-response",568,623056,"0.0-3.185-2.185","fc60n7tg2jdxje4",784,"60.csv","","null","resources/images/coin2.png","null","",NA,NA,NA,NA,""
"image-keyboard-response",569,623917,"0.0-3.186-0.186","fc60n7tg2jdxje4",784,"60.csv","","859","resources/trios/L1T2A1.jpg","38","restless",0.5,0.4,0.5,0.0815577262885212,"true"
"image-keyboard-response",570,624321,"0.0-3.186-1.186","fc60n7tg2jdxje4",784,"60.csv","","null","resources/maskTrios/BT2B.jpg","null","",NA,NA,NA,NA,""
"image-keyboard-response",571,625524,"0.0-3.186-2.186","fc60n7tg2jdxje4",784,"60.csv","","null","resources/images/coin2.png","null","",NA,NA,NA,NA,""
"image-keyboard-response",572,627081,"0.0-3.187-0.187","fc60n7tg2jdxje4",784,"60.csv","","1555","resources/trios/L1T2A3.jpg","38","restless",0.5,0.4,0.5,0.0931900748060264,"true"
"image-keyboard-response",573,627483,"0.0-3.187-1.187","fc60n7tg2jdxje4",784,"60.csv","","null","resources/maskTrios/BT2B.jpg","null","",NA,NA,NA,NA,""
"image-keyboard-response",574,628686,"0.0-3.187-2.187","fc60n7tg2jdxje4",784,"60.csv","","null","resources/images/coin2.png","null","",NA,NA,NA,NA,""
"image-keyboard-response",575,629660,"0.0-3.188-0.188","fc60n7tg2jdxje4",784,"60.csv","","974.0000000001164","resources/trios/L1T2A1.jpg","38","restless",0.5,0.4,0.5,0.132027648489397,"true"
"image-keyboard-response",576,630063,"0.0-3.188-1.188","fc60n7tg2jdxje4",784,"60.csv","","null","resources/maskTrios/BT2B.jpg","null","",NA,NA,NA,NA,""
"image-keyboard-response",577,631265,"0.0-3.188-2.188","fc60n7tg2jdxje4",784,"60.csv","","null","resources/images/coin2.png","null","",NA,NA,NA,NA,""
"image-keyboard-response",578,631870,"0.0-3.189-0.189","fc60n7tg2jdxje4",784,"60.csv","","603","resources/trios/L2T2A1.jpg","38","restless",0.5,0.4,0.5,0.839135267493967,"false"
"image-keyboard-response",579,632275,"0.0-3.189-1.189","fc60n7tg2jdxje4",784,"60.csv","","null","resources/maskTrios/BT2B.jpg","null","",NA,NA,NA,NA,""
"image-keyboard-response",580,633477,"0.0-3.189-2.189","fc60n7tg2jdxje4",784,"60.csv","","null","resources/images/fishbone.png","null","",NA,NA,NA,NA,""
"image-keyboard-response",581,634646,"0.0-3.190-0.190","fc60n7tg2jdxje4",784,"60.csv","","1167","resources/trios/L2T1A3.jpg","37","restless",0.5,0.4,0.5,0.412925318723006,"true"
"image-keyboard-response",582,635049,"0.0-3.190-1.190","fc60n7tg2jdxje4",784,"60.csv","","null","resources/maskTrios/L2BB.jpg","null","",NA,NA,NA,NA,""
"image-keyboard-response",583,636251,"0.0-3.190-2.190","fc60n7tg2jdxje4",784,"60.csv","","null","resources/images/coin2.png","null","",NA,NA,NA,NA,""
"image-keyboard-response",584,636663,"0.0-3.191-0.191","fc60n7tg2jdxje4",784,"60.csv","","410","resources/trios/L2T1A1.jpg","37","restless",0.5,0.4,0.5,0.145028299474565,"true"
"image-keyboard-response",585,637066,"0.0-3.191-1.191","fc60n7tg2jdxje4",784,"60.csv","","null","resources/maskTrios/L2BB.jpg","null","",NA,NA,NA,NA,""
"image-keyboard-response",586,638267,"0.0-3.191-2.191","fc60n7tg2jdxje4",784,"60.csv","","null","resources/images/coin2.png","null","",NA,NA,NA,NA,""
"image-keyboard-response",587,638690,"0.0-3.192-0.192","fc60n7tg2jdxje4",784,"60.csv","","421.0000000001164","resources/trios/L2T2A3.jpg","37","restless",0.5,0.4,0.5,0.223933491183033,"true"
"image-keyboard-response",588,639093,"0.0-3.192-1.192","fc60n7tg2jdxje4",784,"60.csv","","null","resources/maskTrios/L2BB.jpg","null","",NA,NA,NA,NA,""
"image-keyboard-response",589,640297,"0.0-3.192-2.192","fc60n7tg2jdxje4",784,"60.csv","","null","resources/images/coin2.png","null","",NA,NA,NA,NA,""
"image-keyboard-response",590,640645,"0.0-3.193-0.193","fc60n7tg2jdxje4",784,"60.csv","","346","resources/trios/L1T1A1.jpg","37","restless",0.5,0.4,0.5,0.0108018708825125,"true"
"image-keyboard-response",591,641047,"0.0-3.193-1.193","fc60n7tg2jdxje4",784,"60.csv","","null","resources/maskTrios/L1BB.jpg","null","",NA,NA,NA,NA,""
"image-keyboard-response",592,642249,"0.0-3.193-2.193","fc60n7tg2jdxje4",784,"60.csv","","null","resources/images/coin2.png","null","",NA,NA,NA,NA,""
"image-keyboard-response",593,642981,"0.0-3.194-0.194","fc60n7tg2jdxje4",784,"60.csv","","730","resources/trios/L1T1A1.jpg","37","restless",0.5,0.4,0.5,0.384343113196283,"true"
"image-keyboard-response",594,643384,"0.0-3.194-1.194","fc60n7tg2jdxje4",784,"60.csv","","null","resources/maskTrios/L1BB.jpg","null","",NA,NA,NA,NA,""
"image-keyboard-response",595,644586,"0.0-3.194-2.194","fc60n7tg2jdxje4",784,"60.csv","","null","resources/images/coin2.png","null","",NA,NA,NA,NA,""
"image-keyboard-response",596,645084,"0.0-3.195-0.195","fc60n7tg2jdxje4",784,"60.csv","","496.0000000001164","resources/trios/L2T1A1.jpg","37","restless",0.5,0.4,0.5,0.333415102066177,"true"
"image-keyboard-response",597,645486,"0.0-3.195-1.195","fc60n7tg2jdxje4",784,"60.csv","","null","resources/maskTrios/L2BB.jpg","null","",NA,NA,NA,NA,""
"image-keyboard-response",598,646688,"0.0-3.195-2.195","fc60n7tg2jdxje4",784,"60.csv","","null","resources/images/coin2.png","null","",NA,NA,NA,NA,""
"image-keyboard-response",599,647057,"0.0-3.196-0.196","fc60n7tg2jdxje4",784,"60.csv","","368","resources/trios/L1T1A3.jpg","37","restless",0.5,0.4,0.5,0.305561542243223,"true"
"image-keyboard-response",600,647459,"0.0-3.196-1.196","fc60n7tg2jdxje4",784,"60.csv","","null","resources/maskTrios/L1BB.jpg","null","",NA,NA,NA,NA,""
"image-keyboard-response",601,648661,"0.0-3.196-2.196","fc60n7tg2jdxje4",784,"60.csv","","null","resources/images/coin2.png","null","",NA,NA,NA,NA,""
"image-keyboard-response",602,649231,"0.0-3.197-0.197","fc60n7tg2jdxje4",784,"60.csv","","568","resources/trios/L1T2A1.jpg","37","restless",0.5,0.4,0.6,0.902194009780105,"false"
"image-keyboard-response",603,649632,"0.0-3.197-1.197","fc60n7tg2jdxje4",784,"60.csv","","null","resources/maskTrios/L1BB.jpg","null","",NA,NA,NA,NA,""
"image-keyboard-response",604,650834,"0.0-3.197-2.197","fc60n7tg2jdxje4",784,"60.csv","","null","resources/images/fishbone.png","null","",NA,NA,NA,NA,""
"image-keyboard-response",605,651145,"0.0-3.198-0.198","fc60n7tg2jdxje4",784,"60.csv","","310","resources/trios/L1T2A1.jpg","37","restless",0.5,0.4,0.6,0.679403530625039,"false"
"image-keyboard-response",606,651547,"0.0-3.198-1.198","fc60n7tg2jdxje4",784,"60.csv","","null","resources/maskTrios/L1BB.jpg","null","",NA,NA,NA,NA,""
"image-keyboard-response",607,652749,"0.0-3.198-2.198","fc60n7tg2jdxje4",784,"60.csv","","null","resources/images/fishbone.png","null","",NA,NA,NA,NA,""
"image-keyboard-response",608,653099,"0.0-3.199-0.199","fc60n7tg2jdxje4",784,"60.csv","","349","resources/trios/L2T2A3.jpg","38","restless",0.5,0.4,0.6,0.0165142981875543,"true"
"image-keyboard-response",609,653501,"0.0-3.199-1.199","fc60n7tg2jdxje4",784,"60.csv","","null","resources/maskTrios/BT2B.jpg","null","",NA,NA,NA,NA,""
"image-keyboard-response",610,654703,"0.0-3.199-2.199","fc60n7tg2jdxje4",784,"60.csv","","null","resources/images/coin2.png","null","",NA,NA,NA,NA,""
"image-keyboard-response",611,654732,"0.0-3.200-0.200","fc60n7tg2jdxje4",784,"60.csv","","26","resources/trios/L1T2A1.jpg","38","restless",0.5,0.4,0.6,0.947744174324568,"false"
"image-keyboard-response",612,655135,"0.0-3.200-1.200","fc60n7tg2jdxje4",784,"60.csv","","null","resources/maskTrios/BT2B.jpg","null","",NA,NA,NA,NA,""
"image-keyboard-response",613,656337,"0.0-3.200-2.200","fc60n7tg2jdxje4",784,"60.csv","","null","resources/images/fishbone.png","null","",NA,NA,NA,NA,""
"image-keyboard-response",614,656662,"0.0-3.201-0.201","fc60n7tg2jdxje4",784,"60.csv","","322.9999999998836","resources/trios/L1T1A1.jpg","38","restless",0.5,0.4,0.6,0.921968790957967,"false"
"image-keyboard-response",615,657064,"0.0-3.201-1.201","fc60n7tg2jdxje4",784,"60.csv","","null","resources/maskTrios/BT1B.jpg","null","",NA,NA,NA,NA,""
"image-keyboard-response",616,658266,"0.0-3.201-2.201","fc60n7tg2jdxje4",784,"60.csv","","null","resources/images/fishbone.png","null","",NA,NA,NA,NA,""
"image-keyboard-response",617,658273,"0.0-3.202-0.202","fc60n7tg2jdxje4",784,"60.csv","","4","resources/trios/L2T1A3.jpg","37","restless",0.5,0.4,0.6,0.0676742177667389,"true"
"image-keyboard-response",618,658676,"0.0-3.202-1.202","fc60n7tg2jdxje4",784,"60.csv","","null","resources/maskTrios/L2BB.jpg","null","",NA,NA,NA,NA,""
"image-keyboard-response",619,659878,"0.0-3.202-2.202","fc60n7tg2jdxje4",784,"60.csv","","null","resources/images/coin2.png","null","",NA,NA,NA,NA,""
"image-keyboard-response",620,660193,"0.0-3.203-0.203","fc60n7tg2jdxje4",784,"60.csv","","313","resources/trios/L1T2A3.jpg","37","restless",0.6,0.4,0.6,0.664059060659982,"false"
