"trial_type","trial_index","time_elapsed","internal_node_id","subject","participantCode","walkNumber","success","rt","stimulus","key_press","test_part","leftProb","midProb","rightProb","generatedNum","correct"
"pavlovia",0,1269,"0.0-0.0","94xvq8coprqajsy",0,"177.csv","","","","","",NA,NA,NA,NA,""
"fullscreen",1,10549,"0.0-1.0","94xvq8coprqajsy",0,"177.csv","true","","","","",NA,NA,NA,NA,""
"html-keyboard-response",2,472331,"0.0-2.0-0.0","94xvq8coprqajsy",0,"177.csv","","461779.89999997616","<p><font size='6'>Arrrgh!</p></font><p>Can you be the best pirate? Try to find lots of gold! But beware, some islands have more gold than others, and over time, the island with the most gold may change. Can YOU figure it out? </p><font size='6'>GOOD LUCK, CAPTAIN!!!</font><p>Press any key to begin</p>","32","",NA,NA,NA,NA,""
"image-keyboard-response",3,475341,"0.0-2.0-1.0","94xvq8coprqajsy",0,"177.csv","","null","resources/image_sets/111.png","null","",NA,NA,NA,NA,""
"image-keyboard-response",4,495804,"0.0-2.0-2.0","94xvq8coprqajsy",0,"177.csv","","20462.29999998212","resources/image_sets/left_highlight.png","37","",NA,NA,NA,NA,""
"image-keyboard-response",5,497330,"0.0-2.0-3.0","94xvq8coprqajsy",0,"177.csv","","1524.9000000059605","resources/image_sets/mid_highlight.png","38","",NA,NA,NA,NA,""
"image-keyboard-response",6,501435,"0.0-2.0-4.0","94xvq8coprqajsy",0,"177.csv","","4104.199999988079","resources/image_sets/right_highlight.png","39","",NA,NA,NA,NA,""
"image-keyboard-response",7,504575,"0.0-2.0-5.0","94xvq8coprqajsy",0,"177.csv","","3139.399999976158","resources/image_sets/111.png","13","",NA,NA,NA,NA,""
"image-keyboard-response",8,506269,"0.0-2.0-6.0","94xvq8coprqajsy",0,"177.csv","","1692.5","resources/images/coin2.png","13","",NA,NA,NA,NA,""
"image-keyboard-response",9,508726,"0.0-2.0-7.0","94xvq8coprqajsy",0,"177.csv","","2456.800000011921","resources/images/fishbone.png","13","",NA,NA,NA,NA,""
"html-keyboard-response",10,510363,"0.0-2.0-8.0","94xvq8coprqajsy",0,"177.csv","","1636.5","<p>Your first journey will be a long one, but you will get a well deserved break at the end</p><p>After the break you will have four more journeys, but each will be much shorter than the first, and you will have breaks in between each</p><p>Press Enter to begin</p>","13","",NA,NA,NA,NA,""
"image-keyboard-response",11,512014,"0.0-3.0-0.0","94xvq8coprqajsy",0,"177.csv","","1648.7999999821186","resources/trios/L4T4A2.jpg","37","restless",0.3,0.9,0.7,0.210901607481006,"true"
"image-keyboard-response",12,512421,"0.0-3.0-1.0","94xvq8coprqajsy",0,"177.csv","","null","resources/maskTrios/L4BB.jpg","null","",NA,NA,NA,NA,""
"image-keyboard-response",13,513632,"0.0-3.0-2.0","94xvq8coprqajsy",0,"177.csv","","null","resources/images/coin2.png","null","",NA,NA,NA,NA,""
"image-keyboard-response",14,515357,"0.0-3.1-0.1","94xvq8coprqajsy",0,"177.csv","","1723.199999988079","resources/trios/L2T1A2.jpg","39","restless",0.3,0.9,0.7,0.406259145598634,"true"
"image-keyboard-response",15,515766,"0.0-3.1-1.1","94xvq8coprqajsy",0,"177.csv","","null","resources/maskTrios/BBA2.jpg","null","",NA,NA,NA,NA,""
"image-keyboard-response",16,516975,"0.0-3.1-2.1","94xvq8coprqajsy",0,"177.csv","","null","resources/images/coin2.png","null","",NA,NA,NA,NA,""
"image-keyboard-response",17,517665,"0.0-3.2-0.2","94xvq8coprqajsy",0,"177.csv","","688.4000000059605","resources/trios/L2T1A3.jpg","37","restless",0.2,0.9,0.7,0.812766609938287,"false"
"image-keyboard-response",18,518070,"0.0-3.2-1.2","94xvq8coprqajsy",0,"177.csv","","null","resources/maskTrios/L2BB.jpg","null","",NA,NA,NA,NA,""
"image-keyboard-response",19,519278,"0.0-3.2-2.2","94xvq8coprqajsy",0,"177.csv","","null","resources/images/fishbone.png","null","",NA,NA,NA,NA,""
"image-keyboard-response",20,519772,"0.0-3.3-0.3","94xvq8coprqajsy",0,"177.csv","","492.89999997615814","resources/trios/L4T4A3.jpg","39","restless",0.2,0.9,0.7,0.272062011361637,"true"
"image-keyboard-response",21,520182,"0.0-3.3-1.3","94xvq8coprqajsy",0,"177.csv","","null","resources/maskTrios/BBA3.jpg","null","",NA,NA,NA,NA,""
"image-keyboard-response",22,521390,"0.0-3.3-2.3","94xvq8coprqajsy",0,"177.csv","","null","resources/images/coin2.png","null","",NA,NA,NA,NA,""
"image-keyboard-response",23,522109,"0.0-3.4-0.4","94xvq8coprqajsy",0,"177.csv","","718.5","resources/trios/L2T1A3.jpg","39","restless",0.2,0.9,0.7,0.624214543881473,"true"
"image-keyboard-response",24,522517,"0.0-3.4-1.4","94xvq8coprqajsy",0,"177.csv","","null","resources/maskTrios/BBA3.jpg","null","",NA,NA,NA,NA,""
"image-keyboard-response",25,523726,"0.0-3.4-2.4","94xvq8coprqajsy",0,"177.csv","","null","resources/images/coin2.png","null","",NA,NA,NA,NA,""
"image-keyboard-response",26,524569,"0.0-3.5-0.5","94xvq8coprqajsy",0,"177.csv","","841","resources/trios/L4T1A3.jpg","39","restless",0.2,0.9,0.7,0.339719954275276,"true"
"image-keyboard-response",27,524974,"0.0-3.5-1.5","94xvq8coprqajsy",0,"177.csv","","null","resources/maskTrios/BBA3.jpg","null","",NA,NA,NA,NA,""
"image-keyboard-response",28,526181,"0.0-3.5-2.5","94xvq8coprqajsy",0,"177.csv","","null","resources/images/coin2.png","null","",NA,NA,NA,NA,""
"image-keyboard-response",29,526760,"0.0-3.6-0.6","94xvq8coprqajsy",0,"177.csv","","577.7999999821186","resources/trios/L2T4A3.jpg","39","restless",0.2,0.9,0.7,0.1774231056166,"true"
"image-keyboard-response",30,527167,"0.0-3.6-1.6","94xvq8coprqajsy",0,"177.csv","","null","resources/maskTrios/BBA3.jpg","null","",NA,NA,NA,NA,""
"image-keyboard-response",31,528374,"0.0-3.6-2.6","94xvq8coprqajsy",0,"177.csv","","null","resources/images/coin2.png","null","",NA,NA,NA,NA,""
"image-keyboard-response",32,531679,"0.0-3.7-0.7","94xvq8coprqajsy",0,"177.csv","","3303.2000000178814","resources/trios/L2T1A3.jpg","39","restless",0.2,0.9,0.6,0.779520654601861,"false"
"image-keyboard-response",33,532088,"0.0-3.7-1.7","94xvq8coprqajsy",0,"177.csv","","null","resources/maskTrios/BBA3.jpg","null","",NA,NA,NA,NA,""
"image-keyboard-response",34,533293,"0.0-3.7-2.7","94xvq8coprqajsy",0,"177.csv","","null","resources/images/fishbone.png","null","",NA,NA,NA,NA,""
"image-keyboard-response",35,533987,"0.0-3.8-0.8","94xvq8coprqajsy",0,"177.csv","","693.3999999761581","resources/trios/L4T1A3.jpg","37","restless",0.1,0.9,0.6,0.402719603746202,"false"
"image-keyboard-response",36,534390,"0.0-3.8-1.8","94xvq8coprqajsy",0,"177.csv","","null","resources/maskTrios/L4BB.jpg","null","",NA,NA,NA,NA,""
"image-keyboard-response",37,535600,"0.0-3.8-2.8","94xvq8coprqajsy",0,"177.csv","","null","resources/images/fishbone.png","null","",NA,NA,NA,NA,""
"image-keyboard-response",38,536583,"0.0-3.9-0.9","94xvq8coprqajsy",0,"177.csv","","981.5999999940395","resources/trios/L2T4A2.jpg","38","restless",0.1,0.9,0.6,0.223233818774149,"true"
"image-keyboard-response",39,536989,"0.0-3.9-1.9","94xvq8coprqajsy",0,"177.csv","","null","resources/maskTrios/BT4B.jpg","null","",NA,NA,NA,NA,""
"image-keyboard-response",40,538198,"0.0-3.9-2.9","94xvq8coprqajsy",0,"177.csv","","null","resources/images/coin2.png","null","",NA,NA,NA,NA,""
"image-keyboard-response",41,538590,"0.0-3.10-0.10","94xvq8coprqajsy",0,"177.csv","","391.19999998807907","resources/trios/L4T1A2.jpg","38","restless",0.1,0.9,0.7,0.151500630315742,"true"
"image-keyboard-response",42,538993,"0.0-3.10-1.10","94xvq8coprqajsy",0,"177.csv","","null","resources/maskTrios/BT1B.jpg","null","",NA,NA,NA,NA,""
"image-keyboard-response",43,540198,"0.0-3.10-2.10","94xvq8coprqajsy",0,"177.csv","","null","resources/images/coin2.png","null","",NA,NA,NA,NA,""
"image-keyboard-response",44,540991,"0.0-3.11-0.11","94xvq8coprqajsy",0,"177.csv","","791.9000000059605","resources/trios/L2T4A3.jpg","39","restless",0.1,0.9,0.7,0.814968046983187,"false"
"image-keyboard-response",45,541400,"0.0-3.11-1.11","94xvq8coprqajsy",0,"177.csv","","null","resources/maskTrios/BBA3.jpg","null","",NA,NA,NA,NA,""
"image-keyboard-response",46,542606,"0.0-3.11-2.11","94xvq8coprqajsy",0,"177.csv","","null","resources/images/fishbone.png","null","",NA,NA,NA,NA,""
"image-keyboard-response",47,602976,"0.0-3.12-0.12","94xvq8coprqajsy",0,"177.csv","","60368.90000000596","resources/trios/L4T4A3.jpg","39","restless",0.1,0.9,0.7,0.906434312786334,"false"
"image-keyboard-response",48,603384,"0.0-3.12-1.12","94xvq8coprqajsy",0,"177.csv","","null","resources/maskTrios/BBA3.jpg","null","",NA,NA,NA,NA,""
"image-keyboard-response",49,604590,"0.0-3.12-2.12","94xvq8coprqajsy",0,"177.csv","","null","resources/images/fishbone.png","null","",NA,NA,NA,NA,""
"image-keyboard-response",50,660933,"0.0-3.13-0.13","94xvq8coprqajsy",0,"177.csv","","56342.59999999404","resources/trios/L4T1A2.jpg","39","restless",0.1,0.9,0.7,0.478477113959945,"true"
"image-keyboard-response",51,661344,"0.0-3.13-1.13","94xvq8coprqajsy",0,"177.csv","","null","resources/maskTrios/BBA2.jpg","null","",NA,NA,NA,NA,""
"image-keyboard-response",52,662549,"0.0-3.13-2.13","94xvq8coprqajsy",0,"177.csv","","null","resources/images/coin2.png","null","",NA,NA,NA,NA,""
"image-keyboard-response",53,662650,"0.0-3.14-0.14","94xvq8coprqajsy",0,"177.csv","","100.09999999403954","resources/trios/L2T1A2.jpg","39","restless",0.1,0.9,0.7,0.831222807963408,"false"
"image-keyboard-response",54,663054,"0.0-3.14-1.14","94xvq8coprqajsy",0,"177.csv","","null","resources/maskTrios/BBA2.jpg","null","",NA,NA,NA,NA,""
"image-keyboard-response",55,664261,"0.0-3.14-2.14","94xvq8coprqajsy",0,"177.csv","","null","resources/images/fishbone.png","null","",NA,NA,NA,NA,""
"image-keyboard-response",56,664886,"0.0-3.15-0.15","94xvq8coprqajsy",0,"177.csv","","623.8000000119209","resources/trios/L4T1A3.jpg","38","restless",0.1,0.9,0.8,0.884837448273831,"true"
"image-keyboard-response",57,665297,"0.0-3.15-1.15","94xvq8coprqajsy",0,"177.csv","","null","resources/maskTrios/BT1B.jpg","null","",NA,NA,NA,NA,""
"image-keyboard-response",58,666502,"0.0-3.15-2.15","94xvq8coprqajsy",0,"177.csv","","null","resources/images/coin2.png","null","",NA,NA,NA,NA,""
"image-keyboard-response",59,668741,"0.0-3.16-0.16","94xvq8coprqajsy",0,"177.csv","","2237.7000000178814","resources/trios/L4T4A2.jpg","38","restless",0.1,0.9,0.8,0.159429061319864,"true"
"image-keyboard-response",60,669152,"0.0-3.16-1.16","94xvq8coprqajsy",0,"177.csv","","null","resources/maskTrios/BT4B.jpg","null","",NA,NA,NA,NA,""
"image-keyboard-response",61,670357,"0.0-3.16-2.16","94xvq8coprqajsy",0,"177.csv","","null","resources/images/coin2.png","null","",NA,NA,NA,NA,""
"image-keyboard-response",62,670817,"0.0-3.17-0.17","94xvq8coprqajsy",0,"177.csv","","458.60000002384186","resources/trios/L2T4A2.jpg","37","restless",0.1,0.9,0.8,0.483916755593465,"false"
"image-keyboard-response",63,671219,"0.0-3.17-1.17","94xvq8coprqajsy",0,"177.csv","","null","resources/maskTrios/L2BB.jpg","null","",NA,NA,NA,NA,""
"image-keyboard-response",64,672427,"0.0-3.17-2.17","94xvq8coprqajsy",0,"177.csv","","null","resources/images/fishbone.png","null","",NA,NA,NA,NA,""
"image-keyboard-response",65,672797,"0.0-3.18-0.18","94xvq8coprqajsy",0,"177.csv","","369","resources/trios/L4T1A3.jpg","38","restless",0.2,0.9,0.8,0.172843576727144,"true"
"image-keyboard-response",66,673198,"0.0-3.18-1.18","94xvq8coprqajsy",0,"177.csv","","null","resources/maskTrios/BT1B.jpg","null","",NA,NA,NA,NA,""
"image-keyboard-response",67,674404,"0.0-3.18-2.18","94xvq8coprqajsy",0,"177.csv","","null","resources/images/coin2.png","null","",NA,NA,NA,NA,""
"image-keyboard-response",68,674657,"0.0-3.19-0.19","94xvq8coprqajsy",0,"177.csv","","252.80000001192093","resources/trios/L4T1A2.jpg","39","restless",0.2,0.9,0.8,0.543652508098216,"true"
"image-keyboard-response",69,675066,"0.0-3.19-1.19","94xvq8coprqajsy",0,"177.csv","","null","resources/maskTrios/BBA2.jpg","null","",NA,NA,NA,NA,""
"image-keyboard-response",70,676274,"0.0-3.19-2.19","94xvq8coprqajsy",0,"177.csv","","null","resources/images/coin2.png","null","",NA,NA,NA,NA,""
"image-keyboard-response",71,677069,"0.0-3.20-0.20","94xvq8coprqajsy",0,"177.csv","","795.5","resources/trios/L4T1A2.jpg","38","restless",0.2,0.8,0.8,0.280830914877532,"true"
"image-keyboard-response",72,677476,"0.0-3.20-1.20","94xvq8coprqajsy",0,"177.csv","","null","resources/maskTrios/BT1B.jpg","null","",NA,NA,NA,NA,""
"image-keyboard-response",73,678682,"0.0-3.20-2.20","94xvq8coprqajsy",0,"177.csv","","null","resources/images/coin2.png","null","",NA,NA,NA,NA,""
"image-keyboard-response",74,679013,"0.0-3.21-0.21","94xvq8coprqajsy",0,"177.csv","","330.7999999821186","resources/trios/L4T4A2.jpg","37","restless",0.2,0.7,0.8,0.850404103831584,"false"
"image-keyboard-response",75,679418,"0.0-3.21-1.21","94xvq8coprqajsy",0,"177.csv","","null","resources/maskTrios/L4BB.jpg","null","",NA,NA,NA,NA,""
"image-keyboard-response",76,680624,"0.0-3.21-2.21","94xvq8coprqajsy",0,"177.csv","","null","resources/images/fishbone.png","null","",NA,NA,NA,NA,""
"image-keyboard-response",77,681270,"0.0-3.22-0.22","94xvq8coprqajsy",0,"177.csv","","645.3999999761581","resources/trios/L2T1A3.jpg","39","restless",0.2,0.6,0.8,0.732791386165773,"true"
"image-keyboard-response",78,681677,"0.0-3.22-1.22","94xvq8coprqajsy",0,"177.csv","","null","resources/maskTrios/BBA3.jpg","null","",NA,NA,NA,NA,""
"image-keyboard-response",79,682886,"0.0-3.22-2.22","94xvq8coprqajsy",0,"177.csv","","null","resources/images/coin2.png","null","",NA,NA,NA,NA,""
"image-keyboard-response",80,683248,"0.0-3.23-0.23","94xvq8coprqajsy",0,"177.csv","","360","resources/trios/L4T1A3.jpg","38","restless",0.2,0.6,0.9,0.166171296725473,"true"
"image-keyboard-response",81,683650,"0.0-3.23-1.23","94xvq8coprqajsy",0,"177.csv","","null","resources/maskTrios/BT1B.jpg","null","",NA,NA,NA,NA,""
"image-keyboard-response",82,684858,"0.0-3.23-2.23","94xvq8coprqajsy",0,"177.csv","","null","resources/images/coin2.png","null","",NA,NA,NA,NA,""
"image-keyboard-response",83,685474,"0.0-3.24-0.24","94xvq8coprqajsy",0,"177.csv","","616.2000000178814","resources/trios/L4T1A3.jpg","38","restless",0.2,0.6,0.9,0.778175310201489,"false"
"image-keyboard-response",84,685883,"0.0-3.24-1.24","94xvq8coprqajsy",0,"177.csv","","null","resources/maskTrios/BT1B.jpg","null","",NA,NA,NA,NA,""
"image-keyboard-response",85,687089,"0.0-3.24-2.24","94xvq8coprqajsy",0,"177.csv","","null","resources/images/fishbone.png","null","",NA,NA,NA,NA,""
"image-keyboard-response",86,687571,"0.0-3.25-0.25","94xvq8coprqajsy",0,"177.csv","","481.80000001192093","resources/trios/L4T4A3.jpg","39","restless",0.2,0.6,0.9,0.576504263880998,"true"
"image-keyboard-response",87,687974,"0.0-3.25-1.25","94xvq8coprqajsy",0,"177.csv","","null","resources/maskTrios/BBA3.jpg","null","",NA,NA,NA,NA,""
"image-keyboard-response",88,689183,"0.0-3.25-2.25","94xvq8coprqajsy",0,"177.csv","","null","resources/images/coin2.png","null","",NA,NA,NA,NA,""
"image-keyboard-response",89,795694,"0.0-3.26-0.26","94xvq8coprqajsy",0,"177.csv","","106523.59999999404","resources/trios/L2T4A2.jpg","38","restless",0.2,0.6,0.9,0.445813695816153,"true"
"image-keyboard-response",90,796103,"0.0-3.26-1.26","94xvq8coprqajsy",0,"177.csv","","null","resources/maskTrios/BT4B.jpg","null","",NA,NA,NA,NA,""
"image-keyboard-response",91,797313,"0.0-3.26-2.26","94xvq8coprqajsy",0,"177.csv","","null","resources/images/coin2.png","null","",NA,NA,NA,NA,""
"image-keyboard-response",92,797975,"0.0-3.27-0.27","94xvq8coprqajsy",0,"177.csv","","660.5","resources/trios/L4T4A2.jpg","39","restless",0.2,0.6,0.8,0.890743454610697,"false"
"image-keyboard-response",93,798384,"0.0-3.27-1.27","94xvq8coprqajsy",0,"177.csv","","null","resources/maskTrios/BBA2.jpg","null","",NA,NA,NA,NA,""
"image-keyboard-response",94,799590,"0.0-3.27-2.27","94xvq8coprqajsy",0,"177.csv","","null","resources/images/fishbone.png","null","",NA,NA,NA,NA,""
"image-keyboard-response",95,800704,"0.0-3.28-0.28","94xvq8coprqajsy",0,"177.csv","","1113.0999999940395","resources/trios/L4T1A2.jpg","37","restless",0.2,0.6,0.8,0.762436430001089,"false"
"image-keyboard-response",96,801111,"0.0-3.28-1.28","94xvq8coprqajsy",0,"177.csv","","null","resources/maskTrios/L4BB.jpg","null","",NA,NA,NA,NA,""
"image-keyboard-response",97,802319,"0.0-3.28-2.28","94xvq8coprqajsy",0,"177.csv","","null","resources/images/fishbone.png","null","",NA,NA,NA,NA,""
"image-keyboard-response",98,802887,"0.0-3.29-0.29","94xvq8coprqajsy",0,"177.csv","","567","resources/trios/L4T4A3.jpg","38","restless",0.1,0.6,0.8,0.955244676871063,"false"
"image-keyboard-response",99,803298,"0.0-3.29-1.29","94xvq8coprqajsy",0,"177.csv","","null","resources/maskTrios/BT4B.jpg","null","",NA,NA,NA,NA,""
"image-keyboard-response",100,804504,"0.0-3.29-2.29","94xvq8coprqajsy",0,"177.csv","","null","resources/images/fishbone.png","null","",NA,NA,NA,NA,""
"image-keyboard-response",101,810383,"0.0-3.30-0.30","94xvq8coprqajsy",0,"177.csv","","5878.299999982119","resources/trios/L2T4A2.jpg","39","restless",0.1,0.6,0.8,0.439916868397647,"true"
"image-keyboard-response",102,810790,"0.0-3.30-1.30","94xvq8coprqajsy",0,"177.csv","","null","resources/maskTrios/BBA2.jpg","null","",NA,NA,NA,NA,""
"image-keyboard-response",103,812002,"0.0-3.30-2.30","94xvq8coprqajsy",0,"177.csv","","null","resources/images/coin2.png","null","",NA,NA,NA,NA,""
"image-keyboard-response",104,812422,"0.0-3.31-0.31","94xvq8coprqajsy",0,"177.csv","","418.5","resources/trios/L2T4A3.jpg","38","restless",0.2,0.6,0.8,0.634231251918806,"false"
"image-keyboard-response",105,812832,"0.0-3.31-1.31","94xvq8coprqajsy",0,"177.csv","","null","resources/maskTrios/BT4B.jpg","null","",NA,NA,NA,NA,""
"image-keyboard-response",106,814041,"0.0-3.31-2.31","94xvq8coprqajsy",0,"177.csv","","null","resources/images/fishbone.png","null","",NA,NA,NA,NA,""
"image-keyboard-response",107,814689,"0.0-3.32-0.32","94xvq8coprqajsy",0,"177.csv","","646.2999999821186","resources/trios/L2T1A3.jpg","38","restless",0.2,0.6,0.7,0.326288124627545,"true"
"image-keyboard-response",108,815097,"0.0-3.32-1.32","94xvq8coprqajsy",0,"177.csv","","null","resources/maskTrios/BT1B.jpg","null","",NA,NA,NA,NA,""
"image-keyboard-response",109,816303,"0.0-3.32-2.32","94xvq8coprqajsy",0,"177.csv","","null","resources/images/coin2.png","null","",NA,NA,NA,NA,""
"image-keyboard-response",110,816680,"0.0-3.33-0.33","94xvq8coprqajsy",0,"177.csv","","376.90000000596046","resources/trios/L4T1A3.jpg","39","restless",0.3,0.6,0.7,0.878031121059771,"false"
"image-keyboard-response",111,817086,"0.0-3.33-1.33","94xvq8coprqajsy",0,"177.csv","","null","resources/maskTrios/BBA3.jpg","null","",NA,NA,NA,NA,""
"image-keyboard-response",112,818297,"0.0-3.33-2.33","94xvq8coprqajsy",0,"177.csv","","null","resources/images/fishbone.png","null","",NA,NA,NA,NA,""
"image-keyboard-response",113,826746,"0.0-3.34-0.34","94xvq8coprqajsy",0,"177.csv","","8447.40000000596","resources/trios/L4T4A2.jpg","37","restless",0.3,0.6,0.7,0.983588954117357,"false"
"image-keyboard-response",114,827151,"0.0-3.34-1.34","94xvq8coprqajsy",0,"177.csv","","null","resources/maskTrios/L4BB.jpg","null","",NA,NA,NA,NA,""
"image-keyboard-response",115,828359,"0.0-3.34-2.34","94xvq8coprqajsy",0,"177.csv","","null","resources/images/fishbone.png","null","",NA,NA,NA,NA,""
"image-keyboard-response",116,828754,"0.0-3.35-0.35","94xvq8coprqajsy",0,"177.csv","","394.5","resources/trios/L2T1A3.jpg","39","restless",0.4,0.6,0.7,0.849506722645634,"false"
"image-keyboard-response",117,829160,"0.0-3.35-1.35","94xvq8coprqajsy",0,"177.csv","","null","resources/maskTrios/BBA3.jpg","null","",NA,NA,NA,NA,""
"image-keyboard-response",118,830367,"0.0-3.35-2.35","94xvq8coprqajsy",0,"177.csv","","null","resources/images/fishbone.png","null","",NA,NA,NA,NA,""
"image-keyboard-response",119,830892,"0.0-3.36-0.36","94xvq8coprqajsy",0,"177.csv","","524.0999999940395","resources/trios/L4T4A2.jpg","38","restless",0.4,0.6,0.7,0.474745217824508,"true"
"image-keyboard-response",120,831294,"0.0-3.36-1.36","94xvq8coprqajsy",0,"177.csv","","null","resources/maskTrios/BT4B.jpg","null","",NA,NA,NA,NA,""
"image-keyboard-response",121,832505,"0.0-3.36-2.36","94xvq8coprqajsy",0,"177.csv","","null","resources/images/coin2.png","null","",NA,NA,NA,NA,""
"image-keyboard-response",122,832967,"0.0-3.37-0.37","94xvq8coprqajsy",0,"177.csv","","459.69999998807907","resources/trios/L2T4A2.jpg","39","restless",0.5,0.6,0.6,0.622399490519397,"false"
"image-keyboard-response",123,833378,"0.0-3.37-1.37","94xvq8coprqajsy",0,"177.csv","","null","resources/maskTrios/BBA2.jpg","null","",NA,NA,NA,NA,""
"image-keyboard-response",124,834583,"0.0-3.37-2.37","94xvq8coprqajsy",0,"177.csv","","null","resources/images/fishbone.png","null","",NA,NA,NA,NA,""
"image-keyboard-response",125,835030,"0.0-3.38-0.38","94xvq8coprqajsy",0,"177.csv","","446.09999999403954","resources/trios/L4T4A2.jpg","37","restless",0.5,0.6,0.6,0.40434584530068,"true"
"image-keyboard-response",126,835438,"0.0-3.38-1.38","94xvq8coprqajsy",0,"177.csv","","null","resources/maskTrios/L4BB.jpg","null","",NA,NA,NA,NA,""
"image-keyboard-response",127,836647,"0.0-3.38-2.38","94xvq8coprqajsy",0,"177.csv","","null","resources/images/coin2.png","null","",NA,NA,NA,NA,""
"image-keyboard-response",128,837091,"0.0-3.39-0.39","94xvq8coprqajsy",0,"177.csv","","442.5","resources/trios/L4T4A2.jpg","38","restless",0.5,0.6,0.6,0.344823008723404,"true"
"image-keyboard-response",129,837496,"0.0-3.39-1.39","94xvq8coprqajsy",0,"177.csv","","null","resources/maskTrios/BT4B.jpg","null","",NA,NA,NA,NA,""
"image-keyboard-response",130,838706,"0.0-3.39-2.39","94xvq8coprqajsy",0,"177.csv","","null","resources/images/coin2.png","null","",NA,NA,NA,NA,""
"image-keyboard-response",131,839249,"0.0-3.40-0.40","94xvq8coprqajsy",0,"177.csv","","541.5","resources/trios/L2T1A3.jpg","39","restless",0.4,0.6,0.6,0.265986063692139,"true"
"image-keyboard-response",132,839654,"0.0-3.40-1.40","94xvq8coprqajsy",0,"177.csv","","null","resources/maskTrios/BBA3.jpg","null","",NA,NA,NA,NA,""
"image-keyboard-response",133,840865,"0.0-3.40-2.40","94xvq8coprqajsy",0,"177.csv","","null","resources/images/coin2.png","null","",NA,NA,NA,NA,""
"image-keyboard-response",134,841706,"0.0-3.41-0.41","94xvq8coprqajsy",0,"177.csv","","839.0999999940395","resources/trios/L4T1A2.jpg","37","restless",0.4,0.6,0.6,0.433394234907082,"false"
"image-keyboard-response",135,842113,"0.0-3.41-1.41","94xvq8coprqajsy",0,"177.csv","","null","resources/maskTrios/L4BB.jpg","null","",NA,NA,NA,NA,""
"image-keyboard-response",136,843319,"0.0-3.41-2.41","94xvq8coprqajsy",0,"177.csv","","null","resources/images/fishbone.png","null","",NA,NA,NA,NA,""
"image-keyboard-response",137,843752,"0.0-3.42-0.42","94xvq8coprqajsy",0,"177.csv","","431.09999999403954","resources/trios/L4T4A3.jpg","39","restless",0.4,0.6,0.6,0.728918523868808,"false"
"image-keyboard-response",138,844158,"0.0-3.42-1.42","94xvq8coprqajsy",0,"177.csv","","null","resources/maskTrios/BBA3.jpg","null","",NA,NA,NA,NA,""
"image-keyboard-response",139,845367,"0.0-3.42-2.42","94xvq8coprqajsy",0,"177.csv","","null","resources/images/fishbone.png","null","",NA,NA,NA,NA,""
"image-keyboard-response",140,855464,"0.0-3.43-0.43","94xvq8coprqajsy",0,"177.csv","","10095.40000000596","resources/trios/L4T1A2.jpg","38","restless",0.4,0.6,0.5,0.427144846669769,"true"
"image-keyboard-response",141,855873,"0.0-3.43-1.43","94xvq8coprqajsy",0,"177.csv","","null","resources/maskTrios/BT1B.jpg","null","",NA,NA,NA,NA,""
"image-keyboard-response",142,857078,"0.0-3.43-2.43","94xvq8coprqajsy",0,"177.csv","","null","resources/images/coin2.png","null","",NA,NA,NA,NA,""
"image-keyboard-response",143,861526,"0.0-3.44-0.44","94xvq8coprqajsy",0,"177.csv","","4447.5999999940395","resources/trios/L4T4A3.jpg","39","restless",0.5,0.6,0.5,0.614248261417903,"false"
"image-keyboard-response",144,861935,"0.0-3.44-1.44","94xvq8coprqajsy",0,"177.csv","","null","resources/maskTrios/BBA3.jpg","null","",NA,NA,NA,NA,""
"image-keyboard-response",145,863142,"0.0-3.44-2.44","94xvq8coprqajsy",0,"177.csv","","null","resources/images/fishbone.png","null","",NA,NA,NA,NA,""
"image-keyboard-response",146,875822,"0.0-3.45-0.45","94xvq8coprqajsy",0,"177.csv","","12679.899999976158","resources/trios/L2T4A3.jpg","38","restless",0.5,0.6,0.5,0.472443157436919,"true"
"image-keyboard-response",147,876230,"0.0-3.45-1.45","94xvq8coprqajsy",0,"177.csv","","null","resources/maskTrios/BT4B.jpg","null","",NA,NA,NA,NA,""
"image-keyboard-response",148,877439,"0.0-3.45-2.45","94xvq8coprqajsy",0,"177.csv","","null","resources/images/coin2.png","null","",NA,NA,NA,NA,""
"image-keyboard-response",149,883619,"0.0-3.46-0.46","94xvq8coprqajsy",0,"177.csv","","6178.5999999940395","resources/trios/L4T4A3.jpg","38","restless",0.5,0.6,0.5,0.171418113800074,"true"
"image-keyboard-response",150,884024,"0.0-3.46-1.46","94xvq8coprqajsy",0,"177.csv","","null","resources/maskTrios/BT4B.jpg","null","",NA,NA,NA,NA,""
"image-keyboard-response",151,885231,"0.0-3.46-2.46","94xvq8coprqajsy",0,"177.csv","","null","resources/images/coin2.png","null","",NA,NA,NA,NA,""
"image-keyboard-response",152,885670,"0.0-3.47-0.47","94xvq8coprqajsy",0,"177.csv","","438","resources/trios/L2T1A2.jpg","38","restless",0.5,0.6,0.5,0.435103976215735,"true"
"image-keyboard-response",153,886078,"0.0-3.47-1.47","94xvq8coprqajsy",0,"177.csv","","null","resources/maskTrios/BT1B.jpg","null","",NA,NA,NA,NA,""
"image-keyboard-response",154,887287,"0.0-3.47-2.47","94xvq8coprqajsy",0,"177.csv","","null","resources/images/coin2.png","null","",NA,NA,NA,NA,""
"image-keyboard-response",155,887865,"0.0-3.48-0.48","94xvq8coprqajsy",0,"177.csv","","576.9000000059605","resources/trios/L2T1A3.jpg","38","restless",0.5,0.5,0.5,0.935925404351596,"false"
"image-keyboard-response",156,888273,"0.0-3.48-1.48","94xvq8coprqajsy",0,"177.csv","","null","resources/maskTrios/BT1B.jpg","null","",NA,NA,NA,NA,""
"image-keyboard-response",157,889480,"0.0-3.48-2.48","94xvq8coprqajsy",0,"177.csv","","null","resources/images/fishbone.png","null","",NA,NA,NA,NA,""
"image-keyboard-response",158,890559,"0.0-3.49-0.49","94xvq8coprqajsy",0,"177.csv","","1077.5999999940395","resources/trios/L4T1A2.jpg","39","restless",0.5,0.6,0.5,0.0168386123006845,"true"
"image-keyboard-response",159,890969,"0.0-3.49-1.49","94xvq8coprqajsy",0,"177.csv","","null","resources/maskTrios/BBA2.jpg","null","",NA,NA,NA,NA,""
"image-keyboard-response",160,892176,"0.0-3.49-2.49","94xvq8coprqajsy",0,"177.csv","","null","resources/images/coin2.png","null","",NA,NA,NA,NA,""
"image-keyboard-response",161,892438,"0.0-3.50-0.50","94xvq8coprqajsy",0,"177.csv","","261.7999999821186","resources/trios/L4T1A2.jpg","37","restless",0.5,0.6,0.5,0.377823724722205,"true"
"image-keyboard-response",162,892848,"0.0-3.50-1.50","94xvq8coprqajsy",0,"177.csv","","null","resources/maskTrios/L4BB.jpg","null","",NA,NA,NA,NA,""
"image-keyboard-response",163,894054,"0.0-3.50-2.50","94xvq8coprqajsy",0,"177.csv","","null","resources/images/coin2.png","null","",NA,NA,NA,NA,""
"image-keyboard-response",164,894385,"0.0-3.51-0.51","94xvq8coprqajsy",0,"177.csv","","330.5","resources/trios/L2T1A2.jpg","38","restless",0.5,0.6,0.5,0.33358893916165,"true"
"image-keyboard-response",165,894793,"0.0-3.51-1.51","94xvq8coprqajsy",0,"177.csv","","null","resources/maskTrios/BT1B.jpg","null","",NA,NA,NA,NA,""
"image-keyboard-response",166,895998,"0.0-3.51-2.51","94xvq8coprqajsy",0,"177.csv","","null","resources/images/coin2.png","null","",NA,NA,NA,NA,""
"image-keyboard-response",167,896372,"0.0-3.52-0.52","94xvq8coprqajsy",0,"177.csv","","373.7000000178814","resources/trios/L4T1A3.jpg","38","restless",0.5,0.6,0.4,0.54850042334495,"true"
"image-keyboard-response",168,896777,"0.0-3.52-1.52","94xvq8coprqajsy",0,"177.csv","","null","resources/maskTrios/BT1B.jpg","null","",NA,NA,NA,NA,""
"image-keyboard-response",169,897983,"0.0-3.52-2.52","94xvq8coprqajsy",0,"177.csv","","null","resources/images/coin2.png","null","",NA,NA,NA,NA,""
"image-keyboard-response",170,901497,"0.0-3.53-0.53","94xvq8coprqajsy",0,"177.csv","","3511.800000011921","resources/trios/L2T4A3.jpg","39","restless",0.5,0.6,0.5,0.678975657933395,"false"
"image-keyboard-response",171,901902,"0.0-3.53-1.53","94xvq8coprqajsy",0,"177.csv","","null","resources/maskTrios/BBA3.jpg","null","",NA,NA,NA,NA,""
"image-keyboard-response",172,903113,"0.0-3.53-2.53","94xvq8coprqajsy",0,"177.csv","","null","resources/images/fishbone.png","null","",NA,NA,NA,NA,""
"image-keyboard-response",173,903483,"0.0-3.54-0.54","94xvq8coprqajsy",0,"177.csv","","368","resources/trios/L2T4A2.jpg","37","restless",0.5,0.6,0.5,0.0835404491395393,"true"
"image-keyboard-response",174,903889,"0.0-3.54-1.54","94xvq8coprqajsy",0,"177.csv","","null","resources/maskTrios/L2BB.jpg","null","",NA,NA,NA,NA,""
"image-keyboard-response",175,905096,"0.0-3.54-2.54","94xvq8coprqajsy",0,"177.csv","","null","resources/images/coin2.png","null","",NA,NA,NA,NA,""
"image-keyboard-response",176,905407,"0.0-3.55-0.55","94xvq8coprqajsy",0,"177.csv","","309.69999998807907","resources/trios/L2T1A3.jpg","38","restless",0.5,0.5,0.6,0.751712567464705,"false"
"image-keyboard-response",177,905817,"0.0-3.55-1.55","94xvq8coprqajsy",0,"177.csv","","null","resources/maskTrios/BT1B.jpg","null","",NA,NA,NA,NA,""
"image-keyboard-response",178,907024,"0.0-3.55-2.55","94xvq8coprqajsy",0,"177.csv","","null","resources/images/fishbone.png","null","",NA,NA,NA,NA,""
"image-keyboard-response",179,907474,"0.0-3.56-0.56","94xvq8coprqajsy",0,"177.csv","","449.80000001192093","resources/trios/L4T4A3.jpg","38","restless",0.5,0.5,0.6,0.182128545204228,"true"
"image-keyboard-response",180,907879,"0.0-3.56-1.56","94xvq8coprqajsy",0,"177.csv","","null","resources/maskTrios/BT4B.jpg","null","",NA,NA,NA,NA,""
"image-keyboard-response",181,909088,"0.0-3.56-2.56","94xvq8coprqajsy",0,"177.csv","","null","resources/images/coin2.png","null","",NA,NA,NA,NA,""
"image-keyboard-response",182,909440,"0.0-3.57-0.57","94xvq8coprqajsy",0,"177.csv","","351.09999999403954","resources/trios/L4T4A2.jpg","39","restless",0.5,0.5,0.5,0.0776743990029505,"true"
"image-keyboard-response",183,909849,"0.0-3.57-1.57","94xvq8coprqajsy",0,"177.csv","","null","resources/maskTrios/BBA2.jpg","null","",NA,NA,NA,NA,""
"image-keyboard-response",184,911054,"0.0-3.57-2.57","94xvq8coprqajsy",0,"177.csv","","null","resources/images/coin2.png","null","",NA,NA,NA,NA,""
"image-keyboard-response",185,914796,"0.0-3.58-0.58","94xvq8coprqajsy",0,"177.csv","","3741","resources/trios/L4T1A2.jpg","39","restless",0.5,0.5,0.5,0.0630761860331528,"true"
"image-keyboard-response",186,915199,"0.0-3.58-1.58","94xvq8coprqajsy",0,"177.csv","","null","resources/maskTrios/BBA2.jpg","null","",NA,NA,NA,NA,""
"image-keyboard-response",187,916407,"0.0-3.58-2.58","94xvq8coprqajsy",0,"177.csv","","null","resources/images/coin2.png","null","",NA,NA,NA,NA,""
"image-keyboard-response",188,916732,"0.0-3.59-0.59","94xvq8coprqajsy",0,"177.csv","","322.59999999403954","resources/trios/L2T1A2.jpg","37","restless",0.5,0.5,0.5,0.419019534933077,"true"
"image-keyboard-response",189,917135,"0.0-3.59-1.59","94xvq8coprqajsy",0,"177.csv","","null","resources/maskTrios/L2BB.jpg","null","",NA,NA,NA,NA,""
"image-keyboard-response",190,918345,"0.0-3.59-2.59","94xvq8coprqajsy",0,"177.csv","","null","resources/images/coin2.png","null","",NA,NA,NA,NA,""
"image-keyboard-response",191,918691,"0.0-3.60-0.60","94xvq8coprqajsy",0,"177.csv","","344.7999999821186","resources/trios/L2T1A2.jpg","38","restless",0.5,0.5,0.5,0.671193497602176,"false"
"image-keyboard-response",192,919096,"0.0-3.60-1.60","94xvq8coprqajsy",0,"177.csv","","null","resources/maskTrios/BT1B.jpg","null","",NA,NA,NA,NA,""
"image-keyboard-response",193,920305,"0.0-3.60-2.60","94xvq8coprqajsy",0,"177.csv","","null","resources/images/fishbone.png","null","",NA,NA,NA,NA,""
"image-keyboard-response",194,920609,"0.0-3.61-0.61","94xvq8coprqajsy",0,"177.csv","","302.69999998807907","resources/trios/L4T4A2.jpg","39","restless",0.5,0.5,0.5,0.100280118988058,"true"
"image-keyboard-response",195,921017,"0.0-3.61-1.61","94xvq8coprqajsy",0,"177.csv","","null","resources/maskTrios/BBA2.jpg","null","",NA,NA,NA,NA,""
"image-keyboard-response",196,922223,"0.0-3.61-2.61","94xvq8coprqajsy",0,"177.csv","","null","resources/images/coin2.png","null","",NA,NA,NA,NA,""
"image-keyboard-response",197,922511,"0.0-3.62-0.62","94xvq8coprqajsy",0,"177.csv","","286","resources/trios/L4T1A2.jpg","37","restless",0.5,0.5,0.5,0.134279881730842,"true"
"image-keyboard-response",198,922920,"0.0-3.62-1.62","94xvq8coprqajsy",0,"177.csv","","null","resources/maskTrios/L4BB.jpg","null","",NA,NA,NA,NA,""
"image-keyboard-response",199,924127,"0.0-3.62-2.62","94xvq8coprqajsy",0,"177.csv","","null","resources/images/coin2.png","null","",NA,NA,NA,NA,""
"image-keyboard-response",200,924349,"0.0-3.63-0.63","94xvq8coprqajsy",0,"177.csv","","220.69999998807907","resources/trios/L4T4A2.jpg","39","restless",0.5,0.5,0.5,0.154691595521726,"true"
"image-keyboard-response",201,924751,"0.0-3.63-1.63","94xvq8coprqajsy",0,"177.csv","","null","resources/maskTrios/BBA2.jpg","null","",NA,NA,NA,NA,""
"image-keyboard-response",202,925958,"0.0-3.63-2.63","94xvq8coprqajsy",0,"177.csv","","null","resources/images/coin2.png","null","",NA,NA,NA,NA,""
"image-keyboard-response",203,926061,"0.0-3.64-0.64","94xvq8coprqajsy",0,"177.csv","","102","resources/trios/L4T4A2.jpg","38","restless",0.5,0.5,0.5,0.812143546204317,"false"
"image-keyboard-response",204,926473,"0.0-3.64-1.64","94xvq8coprqajsy",0,"177.csv","","null","resources/maskTrios/BT4B.jpg","null","",NA,NA,NA,NA,""
"image-keyboard-response",205,927682,"0.0-3.64-2.64","94xvq8coprqajsy",0,"177.csv","","null","resources/images/fishbone.png","null","",NA,NA,NA,NA,""
"image-keyboard-response",206,927944,"0.0-3.65-0.65","94xvq8coprqajsy",0,"177.csv","","260.40000000596046","resources/trios/L2T4A2.jpg","39","restless",0.5,0.5,0.5,0.388955357061793,"true"
"image-keyboard-response",207,928353,"0.0-3.65-1.65","94xvq8coprqajsy",0,"177.csv","","null","resources/maskTrios/BBA2.jpg","null","",NA,NA,NA,NA,""
"image-keyboard-response",208,929561,"0.0-3.65-2.65","94xvq8coprqajsy",0,"177.csv","","null","resources/images/coin2.png","null","",NA,NA,NA,NA,""
"image-keyboard-response",209,932643,"0.0-3.66-0.66","94xvq8coprqajsy",0,"177.csv","","3080.7999999821186","resources/trios/L4T4A3.jpg","39","restless",0.5,0.5,0.5,0.807498536357903,"false"
"image-keyboard-response",210,933049,"0.0-3.66-1.66","94xvq8coprqajsy",0,"177.csv","","null","resources/maskTrios/BBA3.jpg","null","",NA,NA,NA,NA,""
"image-keyboard-response",211,934255,"0.0-3.66-2.66","94xvq8coprqajsy",0,"177.csv","","null","resources/images/fishbone.png","null","",NA,NA,NA,NA,""
"image-keyboard-response",212,934612,"0.0-3.67-0.67","94xvq8coprqajsy",0,"177.csv","","355.19999998807907","resources/trios/L4T1A3.jpg","37","restless",0.5,0.6,0.4,0.911771223502091,"false"
"image-keyboard-response",213,935022,"0.0-3.67-1.67","94xvq8coprqajsy",0,"177.csv","","null","resources/maskTrios/L4BB.jpg","null","",NA,NA,NA,NA,""
"image-keyboard-response",214,936233,"0.0-3.67-2.67","94xvq8coprqajsy",0,"177.csv","","null","resources/images/fishbone.png","null","",NA,NA,NA,NA,""
"image-keyboard-response",215,936344,"0.0-3.68-0.68","94xvq8coprqajsy",0,"177.csv","","108.90000000596046","resources/trios/L4T1A3.jpg","38","restless",0.5,0.6,0.4,0.677363038109176,"false"
"image-keyboard-response",216,936751,"0.0-3.68-1.68","94xvq8coprqajsy",0,"177.csv","","null","resources/maskTrios/BT1B.jpg","null","",NA,NA,NA,NA,""
"image-keyboard-response",217,937959,"0.0-3.68-2.68","94xvq8coprqajsy",0,"177.csv","","null","resources/images/fishbone.png","null","",NA,NA,NA,NA,""
"image-keyboard-response",218,938335,"0.0-3.69-0.69","94xvq8coprqajsy",0,"177.csv","","374.69999998807907","resources/trios/L4T1A3.jpg","39","restless",0.5,0.6,0.4,0.608837544189281,"false"
"image-keyboard-response",219,938743,"0.0-3.69-1.69","94xvq8coprqajsy",0,"177.csv","","null","resources/maskTrios/BBA3.jpg","null","",NA,NA,NA,NA,""
"image-keyboard-response",220,939944,"0.0-3.69-2.69","94xvq8coprqajsy",0,"177.csv","","null","resources/images/fishbone.png","null","",NA,NA,NA,NA,""
"image-keyboard-response",221,940123,"0.0-3.70-0.70","94xvq8coprqajsy",0,"177.csv","","177.19999998807907","resources/trios/L2T4A2.jpg","37","restless",0.5,0.6,0.4,0.277388389020341,"true"
"image-keyboard-response",222,940527,"0.0-3.70-1.70","94xvq8coprqajsy",0,"177.csv","","null","resources/maskTrios/L2BB.jpg","null","",NA,NA,NA,NA,""
"image-keyboard-response",223,941735,"0.0-3.70-2.70","94xvq8coprqajsy",0,"177.csv","","null","resources/images/coin2.png","null","",NA,NA,NA,NA,""
"image-keyboard-response",224,941998,"0.0-3.71-0.71","94xvq8coprqajsy",0,"177.csv","","261.19999998807907","resources/trios/L4T4A3.jpg","38","restless",0.6,0.6,0.5,0.260243779941536,"true"
"image-keyboard-response",225,942407,"0.0-3.71-1.71","94xvq8coprqajsy",0,"177.csv","","null","resources/maskTrios/BT4B.jpg","null","",NA,NA,NA,NA,""
"image-keyboard-response",226,943614,"0.0-3.71-2.71","94xvq8coprqajsy",0,"177.csv","","null","resources/images/coin2.png","null","",NA,NA,NA,NA,""
"image-keyboard-response",227,943918,"0.0-3.72-0.72","94xvq8coprqajsy",0,"177.csv","","303.60000002384186","resources/trios/L4T4A2.jpg","39","restless",0.6,0.6,0.5,0.547128671201921,"false"
"image-keyboard-response",228,944326,"0.0-3.72-1.72","94xvq8coprqajsy",0,"177.csv","","null","resources/maskTrios/BBA2.jpg","null","",NA,NA,NA,NA,""
"image-keyboard-response",229,945536,"0.0-3.72-2.72","94xvq8coprqajsy",0,"177.csv","","null","resources/images/fishbone.png","null","",NA,NA,NA,NA,""
"image-keyboard-response",230,979917,"0.0-3.73-0.73","94xvq8coprqajsy",0,"177.csv","","34380.19999998808","resources/trios/L4T1A2.jpg","39","restless",0.6,0.6,0.5,0.789431357948453,"false"
"image-keyboard-response",231,980328,"0.0-3.73-1.73","94xvq8coprqajsy",0,"177.csv","","null","resources/maskTrios/BBA2.jpg","null","",NA,NA,NA,NA,""
"image-keyboard-response",232,981536,"0.0-3.73-2.73","94xvq8coprqajsy",0,"177.csv","","null","resources/images/fishbone.png","null","",NA,NA,NA,NA,""
"image-keyboard-response",233,1033658,"0.0-3.74-0.74","94xvq8coprqajsy",0,"177.csv","","52121.19999998808","resources/trios/L4T4A3.jpg","39","restless",0.6,0.6,0.5,0.117214065716247,"true"
"image-keyboard-response",234,1034063,"0.0-3.74-1.74","94xvq8coprqajsy",0,"177.csv","","null","resources/maskTrios/BBA3.jpg","null","",NA,NA,NA,NA,""
"image-keyboard-response",235,1035271,"0.0-3.74-2.74","94xvq8coprqajsy",0,"177.csv","","null","resources/images/coin2.png","null","",NA,NA,NA,NA,""
"image-keyboard-response",236,1036538,"0.0-3.75-0.75","94xvq8coprqajsy",0,"177.csv","","1267","resources/trios/L2T1A3.jpg","37","restless",0.6,0.6,0.5,0.585335532502825,"true"
"image-keyboard-response",237,1036944,"0.0-3.75-1.75","94xvq8coprqajsy",0,"177.csv","","null","resources/maskTrios/L2BB.jpg","null","",NA,NA,NA,NA,""
"image-keyboard-response",238,1038151,"0.0-3.75-2.75","94xvq8coprqajsy",0,"177.csv","","null","resources/images/coin2.png","null","",NA,NA,NA,NA,""
"image-keyboard-response",239,1038845,"0.0-3.76-0.76","94xvq8coprqajsy",0,"177.csv","","693.3000000119209","resources/trios/L4T4A3.jpg","38","restless",0.6,0.6,0.5,0.407023067358929,"true"
"image-keyboard-response",240,1039256,"0.0-3.76-1.76","94xvq8coprqajsy",0,"177.csv","","null","resources/maskTrios/BT4B.jpg","null","",NA,NA,NA,NA,""
"image-keyboard-response",241,1040465,"0.0-3.76-2.76","94xvq8coprqajsy",0,"177.csv","","null","resources/images/coin2.png","null","",NA,NA,NA,NA,""
"image-keyboard-response",242,1040887,"0.0-3.77-0.77","94xvq8coprqajsy",0,"177.csv","","420.40000000596046","resources/trios/L2T4A3.jpg","39","restless",0.6,0.6,0.5,0.241097780010161,"true"
"image-keyboard-response",243,1041295,"0.0-3.77-1.77","94xvq8coprqajsy",0,"177.csv","","null","resources/maskTrios/BBA3.jpg","null","",NA,NA,NA,NA,""
"image-keyboard-response",244,1042505,"0.0-3.77-2.77","94xvq8coprqajsy",0,"177.csv","","null","resources/images/coin2.png","null","",NA,NA,NA,NA,""
"image-keyboard-response",245,1043167,"0.0-3.78-0.78","94xvq8coprqajsy",0,"177.csv","","660.4000000059605","resources/trios/L2T1A3.jpg","37","restless",0.6,0.6,0.5,0.162039257228485,"true"
"image-keyboard-response",246,1043574,"0.0-3.78-1.78","94xvq8coprqajsy",0,"177.csv","","null","resources/maskTrios/L2BB.jpg","null","",NA,NA,NA,NA,""
"image-keyboard-response",247,1044785,"0.0-3.78-2.78","94xvq8coprqajsy",0,"177.csv","","null","resources/images/coin2.png","null","",NA,NA,NA,NA,""
"image-keyboard-response",248,1045321,"0.0-3.79-0.79","94xvq8coprqajsy",0,"177.csv","","533.9000000059605","resources/trios/L4T1A2.jpg","38","restless",0.6,0.6,0.5,0.963992326603486,"false"
"image-keyboard-response",249,1045727,"0.0-3.79-1.79","94xvq8coprqajsy",0,"177.csv","","null","resources/maskTrios/BT1B.jpg","null","",NA,NA,NA,NA,""
"image-keyboard-response",250,1046935,"0.0-3.79-2.79","94xvq8coprqajsy",0,"177.csv","","null","resources/images/fishbone.png","null","",NA,NA,NA,NA,""
"image-keyboard-response",251,1047376,"0.0-3.80-0.80","94xvq8coprqajsy",0,"177.csv","","440.40000000596046","resources/trios/L2T4A3.jpg","39","restless",0.6,0.6,0.5,0.687824104606053,"false"
"image-keyboard-response",252,1047783,"0.0-3.80-1.80","94xvq8coprqajsy",0,"177.csv","","null","resources/maskTrios/BBA3.jpg","null","",NA,NA,NA,NA,""
"image-keyboard-response",253,1048994,"0.0-3.80-2.80","94xvq8coprqajsy",0,"177.csv","","null","resources/images/fishbone.png","null","",NA,NA,NA,NA,""
"image-keyboard-response",254,1050828,"0.0-3.81-0.81","94xvq8coprqajsy",0,"177.csv","","1833.4000000059605","resources/trios/L4T4A3.jpg","38","restless",0.6,0.6,0.5,0.16513986531835,"true"
"image-keyboard-response",255,1051238,"0.0-3.81-1.81","94xvq8coprqajsy",0,"177.csv","","null","resources/maskTrios/BT4B.jpg","null","",NA,NA,NA,NA,""
"image-keyboard-response",256,1052446,"0.0-3.81-2.81","94xvq8coprqajsy",0,"177.csv","","null","resources/images/coin2.png","null","",NA,NA,NA,NA,""
"image-keyboard-response",257,1054484,"0.0-3.82-0.82","94xvq8coprqajsy",0,"177.csv","","2037.5999999940395","resources/trios/L2T1A3.jpg","37","restless",0.6,0.6,0.5,0.901190528562114,"false"
"image-keyboard-response",258,1054887,"0.0-3.82-1.82","94xvq8coprqajsy",0,"177.csv","","null","resources/maskTrios/L2BB.jpg","null","",NA,NA,NA,NA,""
"image-keyboard-response",259,1056097,"0.0-3.82-2.82","94xvq8coprqajsy",0,"177.csv","","null","resources/images/fishbone.png","null","",NA,NA,NA,NA,""
"image-keyboard-response",260,1056656,"0.0-3.83-0.83","94xvq8coprqajsy",0,"177.csv","","557.1999999880791","resources/trios/L4T1A2.jpg","39","restless",0.6,0.6,0.4,0.361937380471605,"true"
"image-keyboard-response",261,1057063,"0.0-3.83-1.83","94xvq8coprqajsy",0,"177.csv","","null","resources/maskTrios/BBA2.jpg","null","",NA,NA,NA,NA,""
"image-keyboard-response",262,1058271,"0.0-3.83-2.83","94xvq8coprqajsy",0,"177.csv","","null","resources/images/coin2.png","null","",NA,NA,NA,NA,""
"image-keyboard-response",263,1059950,"0.0-3.84-0.84","94xvq8coprqajsy",0,"177.csv","","1677.0999999940395","resources/trios/L2T1A3.jpg","38","restless",0.6,0.6,0.3,0.185494797101294,"true"
"image-keyboard-response",264,1060359,"0.0-3.84-1.84","94xvq8coprqajsy",0,"177.csv","","null","resources/maskTrios/BT1B.jpg","null","",NA,NA,NA,NA,""
"image-keyboard-response",265,1061568,"0.0-3.84-2.84","94xvq8coprqajsy",0,"177.csv","","null","resources/images/coin2.png","null","",NA,NA,NA,NA,""
"image-keyboard-response",266,1061993,"0.0-3.85-0.85","94xvq8coprqajsy",0,"177.csv","","423.69999998807907","resources/trios/L2T4A3.jpg","38","restless",0.6,0.6,0.3,0.834459717313041,"false"
"image-keyboard-response",267,1062401,"0.0-3.85-1.85","94xvq8coprqajsy",0,"177.csv","","null","resources/maskTrios/BT4B.jpg","null","",NA,NA,NA,NA,""
"image-keyboard-response",268,1063607,"0.0-3.85-2.85","94xvq8coprqajsy",0,"177.csv","","null","resources/images/fishbone.png","null","",NA,NA,NA,NA,""
"image-keyboard-response",269,1063883,"0.0-3.86-0.86","94xvq8coprqajsy",0,"177.csv","","275","resources/trios/L2T4A2.jpg","39","restless",0.6,0.7,0.3,0.485508442669156,"false"
"image-keyboard-response",270,1064287,"0.0-3.86-1.86","94xvq8coprqajsy",0,"177.csv","","null","resources/maskTrios/BBA2.jpg","null","",NA,NA,NA,NA,""
"image-keyboard-response",271,1065497,"0.0-3.86-2.86","94xvq8coprqajsy",0,"177.csv","","null","resources/images/fishbone.png","null","",NA,NA,NA,NA,""
"image-keyboard-response",272,1066096,"0.0-3.87-0.87","94xvq8coprqajsy",0,"177.csv","","596.4000000059605","resources/trios/L4T1A3.jpg","37","restless",0.6,0.7,0.3,0.532137479469367,"true"
"image-keyboard-response",273,1066502,"0.0-3.87-1.87","94xvq8coprqajsy",0,"177.csv","","null","resources/maskTrios/L4BB.jpg","null","",NA,NA,NA,NA,""
"image-keyboard-response",274,1067713,"0.0-3.87-2.87","94xvq8coprqajsy",0,"177.csv","","null","resources/images/coin2.png","null","",NA,NA,NA,NA,""
"image-keyboard-response",275,1068496,"0.0-3.88-0.88","94xvq8coprqajsy",0,"177.csv","","781.5","resources/trios/L2T4A3.jpg","39","restless",0.6,0.7,0.3,0.810770848914172,"false"
"image-keyboard-response",276,1068902,"0.0-3.88-1.88","94xvq8coprqajsy",0,"177.csv","","null","resources/maskTrios/BBA3.jpg","null","",NA,NA,NA,NA,""
"image-keyboard-response",277,1070113,"0.0-3.88-2.88","94xvq8coprqajsy",0,"177.csv","","null","resources/images/fishbone.png","null","",NA,NA,NA,NA,""
"image-keyboard-response",278,1070852,"0.0-3.89-0.89","94xvq8coprqajsy",0,"177.csv","","737.1999999880791","resources/trios/L2T4A3.jpg","37","restless",0.6,0.7,0.3,0.630792136319928,"false"
"image-keyboard-response",279,1071254,"0.0-3.89-1.89","94xvq8coprqajsy",0,"177.csv","","null","resources/maskTrios/L2BB.jpg","null","",NA,NA,NA,NA,""
"image-keyboard-response",280,1072465,"0.0-3.89-2.89","94xvq8coprqajsy",0,"177.csv","","null","resources/images/fishbone.png","null","",NA,NA,NA,NA,""
"image-keyboard-response",281,1072804,"0.0-3.90-0.90","94xvq8coprqajsy",0,"177.csv","","337.5","resources/trios/L2T4A2.jpg","39","restless",0.6,0.8,0.3,0.560606779039313,"false"
"image-keyboard-response",282,1073209,"0.0-3.90-1.90","94xvq8coprqajsy",0,"177.csv","","null","resources/maskTrios/BBA2.jpg","null","",NA,NA,NA,NA,""
"image-keyboard-response",283,1074417,"0.0-3.90-2.90","94xvq8coprqajsy",0,"177.csv","","null","resources/images/fishbone.png","null","",NA,NA,NA,NA,""
"image-keyboard-response",284,1075306,"0.0-3.91-0.91","94xvq8coprqajsy",0,"177.csv","","887","resources/trios/L4T1A2.jpg","38","restless",0.6,0.8,0.3,0.391941846991238,"true"
"image-keyboard-response",285,1075713,"0.0-3.91-1.91","94xvq8coprqajsy",0,"177.csv","","null","resources/maskTrios/BT1B.jpg","null","",NA,NA,NA,NA,""
"image-keyboard-response",286,1076920,"0.0-3.91-2.91","94xvq8coprqajsy",0,"177.csv","","null","resources/images/coin2.png","null","",NA,NA,NA,NA,""
"image-keyboard-response",287,1077401,"0.0-3.92-0.92","94xvq8coprqajsy",0,"177.csv","","480.19999998807907","resources/trios/L4T4A3.jpg","39","restless",0.6,0.8,0.2,0.119718956492577,"true"
"image-keyboard-response",288,1077809,"0.0-3.92-1.92","94xvq8coprqajsy",0,"177.csv","","null","resources/maskTrios/BBA3.jpg","null","",NA,NA,NA,NA,""
"image-keyboard-response",289,1079015,"0.0-3.92-2.92","94xvq8coprqajsy",0,"177.csv","","null","resources/images/coin2.png","null","",NA,NA,NA,NA,""
"image-keyboard-response",290,1079932,"0.0-3.93-0.93","94xvq8coprqajsy",0,"177.csv","","916","resources/trios/L4T1A2.jpg","37","restless",0.6,0.8,0.2,0.845820268186604,"false"
"image-keyboard-response",291,1080334,"0.0-3.93-1.93","94xvq8coprqajsy",0,"177.csv","","null","resources/maskTrios/L4BB.jpg","null","",NA,NA,NA,NA,""
"image-keyboard-response",292,1081545,"0.0-3.93-2.93","94xvq8coprqajsy",0,"177.csv","","null","resources/images/fishbone.png","null","",NA,NA,NA,NA,""
"image-keyboard-response",293,1082376,"0.0-3.94-0.94","94xvq8coprqajsy",0,"177.csv","","829.2999999821186","resources/trios/L2T4A2.jpg","39","restless",0.6,0.8,0.2,0.821135238888631,"false"
"image-keyboard-response",294,1082785,"0.0-3.94-1.94","94xvq8coprqajsy",0,"177.csv","","null","resources/maskTrios/BBA2.jpg","null","",NA,NA,NA,NA,""
"image-keyboard-response",295,1083991,"0.0-3.94-2.94","94xvq8coprqajsy",0,"177.csv","","null","resources/images/fishbone.png","null","",NA,NA,NA,NA,""
"image-keyboard-response",296,1122327,"0.0-3.95-0.95","94xvq8coprqajsy",0,"177.csv","","38335.19999998808","resources/trios/L2T4A2.jpg","39","restless",0.6,0.8,0.2,0.312643554044196,"false"
"image-keyboard-response",297,1122737,"0.0-3.95-1.95","94xvq8coprqajsy",0,"177.csv","","null","resources/maskTrios/BBA2.jpg","null","",NA,NA,NA,NA,""
"image-keyboard-response",298,1123943,"0.0-3.95-2.95","94xvq8coprqajsy",0,"177.csv","","null","resources/images/fishbone.png","null","",NA,NA,NA,NA,""
"image-keyboard-response",299,1124455,"0.0-3.96-0.96","94xvq8coprqajsy",0,"177.csv","","510.19999998807907","resources/trios/L4T4A3.jpg","38","restless",0.6,0.8,0.2,0.18939631221324,"true"
"image-keyboard-response",300,1124863,"0.0-3.96-1.96","94xvq8coprqajsy",0,"177.csv","","null","resources/maskTrios/BT4B.jpg","null","",NA,NA,NA,NA,""
"image-keyboard-response",301,1126073,"0.0-3.96-2.96","94xvq8coprqajsy",0,"177.csv","","null","resources/images/coin2.png","null","",NA,NA,NA,NA,""
"image-keyboard-response",302,1126372,"0.0-3.97-0.97","94xvq8coprqajsy",0,"177.csv","","296.90000000596046","resources/trios/L2T1A2.jpg","39","restless",0.6,0.8,0.2,0.754475488928579,"false"
"image-keyboard-response",303,1126775,"0.0-3.97-1.97","94xvq8coprqajsy",0,"177.csv","","null","resources/maskTrios/BBA2.jpg","null","",NA,NA,NA,NA,""
"image-keyboard-response",304,1127983,"0.0-3.97-2.97","94xvq8coprqajsy",0,"177.csv","","null","resources/images/fishbone.png","null","",NA,NA,NA,NA,""
"image-keyboard-response",305,1129772,"0.0-3.98-0.98","94xvq8coprqajsy",0,"177.csv","","1788.5999999940395","resources/trios/L2T4A3.jpg","37","restless",0.6,0.8,0.2,0.868878188887024,"false"
"image-keyboard-response",306,1130177,"0.0-3.98-1.98","94xvq8coprqajsy",0,"177.csv","","null","resources/maskTrios/L2BB.jpg","null","",NA,NA,NA,NA,""
"image-keyboard-response",307,1131385,"0.0-3.98-2.98","94xvq8coprqajsy",0,"177.csv","","null","resources/images/fishbone.png","null","",NA,NA,NA,NA,""
"image-keyboard-response",308,1131734,"0.0-3.99-0.99","94xvq8coprqajsy",0,"177.csv","","347.2999999821186","resources/trios/L2T4A3.jpg","39","restless",0.6,0.8,0.2,0.823443009572726,"false"
"image-keyboard-response",309,1132143,"0.0-3.99-1.99","94xvq8coprqajsy",0,"177.csv","","null","resources/maskTrios/BBA3.jpg","null","",NA,NA,NA,NA,""
"image-keyboard-response",310,1133351,"0.0-3.99-2.99","94xvq8coprqajsy",0,"177.csv","","null","resources/images/fishbone.png","null","",NA,NA,NA,NA,""
"image-keyboard-response",311,1134639,"0.0-3.100-0.100","94xvq8coprqajsy",0,"177.csv","","1286","resources/trios/L4T4A2.jpg","38","restless",0.6,0.8,0.2,0.989260564704057,"false"
"image-keyboard-response",312,1135047,"0.0-3.100-1.100","94xvq8coprqajsy",0,"177.csv","","null","resources/maskTrios/BT4B.jpg","null","",NA,NA,NA,NA,""
"image-keyboard-response",313,1136254,"0.0-3.100-2.100","94xvq8coprqajsy",0,"177.csv","","null","resources/images/fishbone.png","null","",NA,NA,NA,NA,""
"image-keyboard-response",314,1138369,"0.0-3.101-0.101","94xvq8coprqajsy",0,"177.csv","","2114.5","resources/trios/L2T4A2.jpg","38","restless",0.6,0.7,0.2,0.868366546949367,"false"
"image-keyboard-response",315,1138778,"0.0-3.101-1.101","94xvq8coprqajsy",0,"177.csv","","null","resources/maskTrios/BT4B.jpg","null","",NA,NA,NA,NA,""
"image-keyboard-response",316,1139984,"0.0-3.101-2.101","94xvq8coprqajsy",0,"177.csv","","null","resources/images/fishbone.png","null","",NA,NA,NA,NA,""
"image-keyboard-response",317,66163944,"0.0-3.102-0.102","94xvq8coprqajsy",0,"177.csv","","5742393.199999988","resources/trios/L4T1A2.jpg","39","restless",0.6,0.7,0.2,0.75300305722028,"false"
"image-keyboard-response",318,66164348,"0.0-3.102-1.102","94xvq8coprqajsy",0,"177.csv","","null","resources/maskTrios/BBA2.jpg","null","",NA,NA,NA,NA,""
"image-keyboard-response",319,66165557,"0.0-3.102-2.102","94xvq8coprqajsy",0,"177.csv","","null","resources/images/fishbone.png","null","",NA,NA,NA,NA,""
"image-keyboard-response",320,66166075,"0.0-3.103-0.103","94xvq8coprqajsy",0,"177.csv","","516.8000000119209","resources/trios/L2T4A3.jpg","39","restless",0.6,0.7,0.1,0.494380020682204,"false"
"image-keyboard-response",321,66166485,"0.0-3.103-1.103","94xvq8coprqajsy",0,"177.csv","","null","resources/maskTrios/BBA3.jpg","null","",NA,NA,NA,NA,""
"image-keyboard-response",322,66167693,"0.0-3.103-2.103","94xvq8coprqajsy",0,"177.csv","","null","resources/images/fishbone.png","null","",NA,NA,NA,NA,""
"image-keyboard-response",323,66167699,"0.0-3.104-0.104","94xvq8coprqajsy",0,"177.csv","","5.5","resources/trios/L4T1A2.jpg","37","restless",0.6,0.7,0.1,0.0258507838664879,"true"
"image-keyboard-response",324,66168100,"0.0-3.104-1.104","94xvq8coprqajsy",0,"177.csv","","null","resources/maskTrios/L4BB.jpg","null","",NA,NA,NA,NA,""
"image-keyboard-response",325,66169309,"0.0-3.104-2.104","94xvq8coprqajsy",0,"177.csv","","null","resources/images/coin2.png","null","",NA,NA,NA,NA,""
"image-keyboard-response",326,66169395,"0.0-3.105-0.105","94xvq8coprqajsy",0,"177.csv","","85.5","resources/trios/L2T1A3.jpg","39","restless",0.6,0.7,0.1,0.733844927507765,"false"
"image-keyboard-response",327,66169805,"0.0-3.105-1.105","94xvq8coprqajsy",0,"177.csv","","null","resources/maskTrios/BBA3.jpg","null","",NA,NA,NA,NA,""
"image-keyboard-response",328,66171009,"0.0-3.105-2.105","94xvq8coprqajsy",0,"177.csv","","null","resources/images/fishbone.png","null","",NA,NA,NA,NA,""
"image-keyboard-response",329,66179033,"0.0-3.106-0.106","94xvq8coprqajsy",0,"177.csv","","8023.9000000059605","resources/trios/L2T4A3.jpg","39","restless",0.6,0.7,0.1,0.475579655702216,"false"
"image-keyboard-response",330,66179437,"0.0-3.106-1.106","94xvq8coprqajsy",0,"177.csv","","null","resources/maskTrios/BBA3.jpg","null","",NA,NA,NA,NA,""
"image-keyboard-response",331,66180645,"0.0-3.106-2.106","94xvq8coprqajsy",0,"177.csv","","null","resources/images/fishbone.png","null","",NA,NA,NA,NA,""
"image-keyboard-response",332,66307803,"0.0-3.107-0.107","94xvq8coprqajsy",0,"177.csv","","127157","resources/trios/L2T1A3.jpg","37","restless",0.6,0.7,0.2,0.851248669718883,"false"
"image-keyboard-response",333,66308213,"0.0-3.107-1.107","94xvq8coprqajsy",0,"177.csv","","null","resources/maskTrios/L2BB.jpg","null","",NA,NA,NA,NA,""
"image-keyboard-response",334,66309421,"0.0-3.107-2.107","94xvq8coprqajsy",0,"177.csv","","null","resources/images/fishbone.png","null","",NA,NA,NA,NA,""
"image-keyboard-response",335,66310105,"0.0-3.108-0.108","94xvq8coprqajsy",0,"177.csv","","682.6999999880791","resources/trios/L2T4A2.jpg","38","restless",0.6,0.7,0.2,0.496786129124902,"true"
"image-keyboard-response",336,66310508,"0.0-3.108-1.108","94xvq8coprqajsy",0,"177.csv","","null","resources/maskTrios/BT4B.jpg","null","",NA,NA,NA,NA,""
"image-keyboard-response",337,66311718,"0.0-3.108-2.108","94xvq8coprqajsy",0,"177.csv","","null","resources/images/coin2.png","null","",NA,NA,NA,NA,""
"image-keyboard-response",338,66312004,"0.0-3.109-0.109","94xvq8coprqajsy",0,"177.csv","","284.90000000596046","resources/trios/L2T4A3.jpg","39","restless",0.6,0.7,0.2,0.398170898562495,"false"
"image-keyboard-response",339,66312412,"0.0-3.109-1.109","94xvq8coprqajsy",0,"177.csv","","null","resources/maskTrios/BBA3.jpg","null","",NA,NA,NA,NA,""
"image-keyboard-response",340,66313622,"0.0-3.109-2.109","94xvq8coprqajsy",0,"177.csv","","null","resources/images/fishbone.png","null","",NA,NA,NA,NA,""
"image-keyboard-response",341,66314611,"0.0-3.110-0.110","94xvq8coprqajsy",0,"177.csv","","987.7999999821186","resources/trios/L2T1A3.jpg","37","restless",0.6,0.7,0.2,0.836299354435827,"false"
"image-keyboard-response",342,66315021,"0.0-3.110-1.110","94xvq8coprqajsy",0,"177.csv","","null","resources/maskTrios/L2BB.jpg","null","",NA,NA,NA,NA,""
"image-keyboard-response",343,66316229,"0.0-3.110-2.110","94xvq8coprqajsy",0,"177.csv","","null","resources/images/fishbone.png","null","",NA,NA,NA,NA,""
"image-keyboard-response",344,66316699,"0.0-3.111-0.111","94xvq8coprqajsy",0,"177.csv","","469.09999999403954","resources/trios/L2T1A2.jpg","39","restless",0.5,0.7,0.3,0.587207996207423,"false"
"image-keyboard-response",345,66317109,"0.0-3.111-1.111","94xvq8coprqajsy",0,"177.csv","","null","resources/maskTrios/BBA2.jpg","null","",NA,NA,NA,NA,""
"image-keyboard-response",346,66318318,"0.0-3.111-2.111","94xvq8coprqajsy",0,"177.csv","","null","resources/images/fishbone.png","null","",NA,NA,NA,NA,""
"image-keyboard-response",347,66319131,"0.0-3.112-0.112","94xvq8coprqajsy",0,"177.csv","","812","resources/trios/L4T4A3.jpg","37","restless",0.5,0.7,0.3,0.804254093316835,"false"
"image-keyboard-response",348,66319542,"0.0-3.112-1.112","94xvq8coprqajsy",0,"177.csv","","null","resources/maskTrios/L4BB.jpg","null","",NA,NA,NA,NA,""
"image-keyboard-response",349,66320750,"0.0-3.112-2.112","94xvq8coprqajsy",0,"177.csv","","null","resources/images/fishbone.png","null","",NA,NA,NA,NA,""
"image-keyboard-response",350,66321394,"0.0-3.113-0.113","94xvq8coprqajsy",0,"177.csv","","644.0999999940395","resources/trios/L4T1A3.jpg","39","restless",0.5,0.7,0.3,0.0520641287183607,"true"
"image-keyboard-response",351,66321798,"0.0-3.113-1.113","94xvq8coprqajsy",0,"177.csv","","null","resources/maskTrios/BBA3.jpg","null","",NA,NA,NA,NA,""
"image-keyboard-response",352,66323006,"0.0-3.113-2.113","94xvq8coprqajsy",0,"177.csv","","null","resources/images/coin2.png","null","",NA,NA,NA,NA,""
"image-keyboard-response",353,66323404,"0.0-3.114-0.114","94xvq8coprqajsy",0,"177.csv","","397.69999998807907","resources/trios/L2T1A3.jpg","37","restless",0.5,0.7,0.3,0.923631808545143,"false"
"image-keyboard-response",354,66323814,"0.0-3.114-1.114","94xvq8coprqajsy",0,"177.csv","","null","resources/maskTrios/L2BB.jpg","null","",NA,NA,NA,NA,""
"image-keyboard-response",355,66325022,"0.0-3.114-2.114","94xvq8coprqajsy",0,"177.csv","","null","resources/images/fishbone.png","null","",NA,NA,NA,NA,""
"image-keyboard-response",356,66325482,"0.0-3.115-0.115","94xvq8coprqajsy",0,"177.csv","","458.09999999403954","resources/trios/L2T1A3.jpg","38","restless",0.5,0.7,0.3,0.774221772283003,"false"
"image-keyboard-response",357,66325884,"0.0-3.115-1.115","94xvq8coprqajsy",0,"177.csv","","null","resources/maskTrios/BT1B.jpg","null","",NA,NA,NA,NA,""
"image-keyboard-response",358,66327092,"0.0-3.115-2.115","94xvq8coprqajsy",0,"177.csv","","null","resources/images/fishbone.png","null","",NA,NA,NA,NA,""
"image-keyboard-response",359,66327445,"0.0-3.116-0.116","94xvq8coprqajsy",0,"177.csv","","350.69999998807907","resources/trios/L4T1A3.jpg","39","restless",0.5,0.7,0.3,0.370348870194237,"false"
"image-keyboard-response",360,66327852,"0.0-3.116-1.116","94xvq8coprqajsy",0,"177.csv","","null","resources/maskTrios/BBA3.jpg","null","",NA,NA,NA,NA,""
"image-keyboard-response",361,66329062,"0.0-3.116-2.116","94xvq8coprqajsy",0,"177.csv","","null","resources/images/fishbone.png","null","",NA,NA,NA,NA,""
"image-keyboard-response",362,66329492,"0.0-3.117-0.117","94xvq8coprqajsy",0,"177.csv","","428.30000001192093","resources/trios/L4T1A3.jpg","37","restless",0.5,0.7,0.4,0.875922907110253,"false"
"image-keyboard-response",363,66329902,"0.0-3.117-1.117","94xvq8coprqajsy",0,"177.csv","","null","resources/maskTrios/L4BB.jpg","null","",NA,NA,NA,NA,""
"image-keyboard-response",364,66331110,"0.0-3.117-2.117","94xvq8coprqajsy",0,"177.csv","","null","resources/images/fishbone.png","null","",NA,NA,NA,NA,""
"image-keyboard-response",365,66331798,"0.0-3.118-0.118","94xvq8coprqajsy",0,"177.csv","","686.6999999880791","resources/trios/L2T4A2.jpg","38","restless",0.5,0.7,0.4,0.580187890648572,"true"
"image-keyboard-response",366,66332206,"0.0-3.118-1.118","94xvq8coprqajsy",0,"177.csv","","null","resources/maskTrios/BT4B.jpg","null","",NA,NA,NA,NA,""
"image-keyboard-response",367,66333413,"0.0-3.118-2.118","94xvq8coprqajsy",0,"177.csv","","null","resources/images/coin2.png","null","",NA,NA,NA,NA,""
"image-keyboard-response",368,66334102,"0.0-3.119-0.119","94xvq8coprqajsy",0,"177.csv","","687.6999999880791","resources/trios/L2T1A2.jpg","39","restless",0.5,0.7,0.4,0.495289220386181,"false"
"image-keyboard-response",369,66334509,"0.0-3.119-1.119","94xvq8coprqajsy",0,"177.csv","","null","resources/maskTrios/BBA2.jpg","null","",NA,NA,NA,NA,""
"image-keyboard-response",370,66335716,"0.0-3.119-2.119","94xvq8coprqajsy",0,"177.csv","","null","resources/images/fishbone.png","null","",NA,NA,NA,NA,""
"image-keyboard-response",371,66336228,"0.0-3.120-0.120","94xvq8coprqajsy",0,"177.csv","","510.90000000596046","resources/trios/L4T1A3.jpg","37","restless",0.5,0.7,0.4,0.936741451650712,"false"
"image-keyboard-response",372,66336636,"0.0-3.120-1.120","94xvq8coprqajsy",0,"177.csv","","null","resources/maskTrios/L4BB.jpg","null","",NA,NA,NA,NA,""
"image-keyboard-response",373,66337849,"0.0-3.120-2.120","94xvq8coprqajsy",0,"177.csv","","null","resources/images/fishbone.png","null","",NA,NA,NA,NA,""
"image-keyboard-response",374,66338672,"0.0-3.121-0.121","94xvq8coprqajsy",0,"177.csv","","822","resources/trios/L2T1A3.jpg","38","restless",0.5,0.7,0.4,0.297643955078958,"true"
"image-keyboard-response",375,66339077,"0.0-3.121-1.121","94xvq8coprqajsy",0,"177.csv","","null","resources/maskTrios/BT1B.jpg","null","",NA,NA,NA,NA,""
"image-keyboard-response",376,66340285,"0.0-3.121-2.121","94xvq8coprqajsy",0,"177.csv","","null","resources/images/coin2.png","null","",NA,NA,NA,NA,""
"image-keyboard-response",377,66342283,"0.0-3.122-0.122","94xvq8coprqajsy",0,"177.csv","","1997.2999999821186","resources/trios/L2T4A2.jpg","39","restless",0.4,0.7,0.4,0.477104369915373,"false"
"image-keyboard-response",378,66342694,"0.0-3.122-1.122","94xvq8coprqajsy",0,"177.csv","","null","resources/maskTrios/BBA2.jpg","null","",NA,NA,NA,NA,""
"image-keyboard-response",379,66343901,"0.0-3.122-2.122","94xvq8coprqajsy",0,"177.csv","","null","resources/images/fishbone.png","null","",NA,NA,NA,NA,""
"image-keyboard-response",380,66344221,"0.0-3.123-0.123","94xvq8coprqajsy",0,"177.csv","","318.69999998807907","resources/trios/L2T1A3.jpg","37","restless",0.4,0.7,0.4,0.441837998690592,"false"
"image-keyboard-response",381,66344629,"0.0-3.123-1.123","94xvq8coprqajsy",0,"177.csv","","null","resources/maskTrios/L2BB.jpg","null","",NA,NA,NA,NA,""
"image-keyboard-response",382,66345837,"0.0-3.123-2.123","94xvq8coprqajsy",0,"177.csv","","null","resources/images/fishbone.png","null","",NA,NA,NA,NA,""
"image-keyboard-response",383,66350763,"0.0-3.124-0.124","94xvq8coprqajsy",0,"177.csv","","4925","resources/trios/L2T4A3.jpg","37","restless",0.4,0.7,0.4,0.902976166703369,"false"
"image-keyboard-response",384,66351174,"0.0-3.124-1.124","94xvq8coprqajsy",0,"177.csv","","null","resources/maskTrios/L2BB.jpg","null","",NA,NA,NA,NA,""
"image-keyboard-response",385,66352382,"0.0-3.124-2.124","94xvq8coprqajsy",0,"177.csv","","null","resources/images/fishbone.png","null","",NA,NA,NA,NA,""
"image-keyboard-response",386,66352669,"0.0-3.125-0.125","94xvq8coprqajsy",0,"177.csv","","285.7999999821186","resources/trios/L2T1A2.jpg","39","restless",0.4,0.7,0.4,0.919336430880159,"false"
"image-keyboard-response",387,66353078,"0.0-3.125-1.125","94xvq8coprqajsy",0,"177.csv","","null","resources/maskTrios/BBA2.jpg","null","",NA,NA,NA,NA,""
"image-keyboard-response",388,66354286,"0.0-3.125-2.125","94xvq8coprqajsy",0,"177.csv","","null","resources/images/fishbone.png","null","",NA,NA,NA,NA,""
"image-keyboard-response",389,66363217,"0.0-3.126-0.126","94xvq8coprqajsy",0,"177.csv","","8930.299999982119","resources/trios/L4T1A3.jpg","37","restless",0.4,0.7,0.4,0.989191933729219,"false"
"image-keyboard-response",390,66363621,"0.0-3.126-1.126","94xvq8coprqajsy",0,"177.csv","","null","resources/maskTrios/L4BB.jpg","null","",NA,NA,NA,NA,""
"image-keyboard-response",391,66364829,"0.0-3.126-2.126","94xvq8coprqajsy",0,"177.csv","","null","resources/images/fishbone.png","null","",NA,NA,NA,NA,""
"image-keyboard-response",392,66364905,"0.0-3.127-0.127","94xvq8coprqajsy",0,"177.csv","","73.80000001192093","resources/trios/L4T1A3.jpg","39","restless",0.4,0.7,0.4,0.386988266696649,"true"
"image-keyboard-response",393,66365308,"0.0-3.127-1.127","94xvq8coprqajsy",0,"177.csv","","null","resources/maskTrios/BBA3.jpg","null","",NA,NA,NA,NA,""
"image-keyboard-response",394,66366518,"0.0-3.127-2.127","94xvq8coprqajsy",0,"177.csv","","null","resources/images/coin2.png","null","",NA,NA,NA,NA,""
"image-keyboard-response",395,66366847,"0.0-3.128-0.128","94xvq8coprqajsy",0,"177.csv","","328","resources/trios/L2T4A3.jpg","37","restless",0.4,0.7,0.4,0.913180356768875,"false"
"image-keyboard-response",396,66367252,"0.0-3.128-1.128","94xvq8coprqajsy",0,"177.csv","","null","resources/maskTrios/L2BB.jpg","null","",NA,NA,NA,NA,""
"image-keyboard-response",397,66368462,"0.0-3.128-2.128","94xvq8coprqajsy",0,"177.csv","","null","resources/images/fishbone.png","null","",NA,NA,NA,NA,""
"image-keyboard-response",398,66368825,"0.0-3.129-0.129","94xvq8coprqajsy",0,"177.csv","","361.69999998807907","resources/trios/L4T4A3.jpg","39","restless",0.4,0.7,0.4,0.386888089483525,"true"
"image-keyboard-response",399,66369230,"0.0-3.129-1.129","94xvq8coprqajsy",0,"177.csv","","null","resources/maskTrios/BBA3.jpg","null","",NA,NA,NA,NA,""
"image-keyboard-response",400,66370437,"0.0-3.129-2.129","94xvq8coprqajsy",0,"177.csv","","null","resources/images/coin2.png","null","",NA,NA,NA,NA,""
"image-keyboard-response",401,66370724,"0.0-3.130-0.130","94xvq8coprqajsy",0,"177.csv","","286","resources/trios/L4T4A3.jpg","38","restless",0.4,0.7,0.4,0.881355113131255,"false"
"image-keyboard-response",402,66371134,"0.0-3.130-1.130","94xvq8coprqajsy",0,"177.csv","","null","resources/maskTrios/BT4B.jpg","null","",NA,NA,NA,NA,""
"image-keyboard-response",403,66372342,"0.0-3.130-2.130","94xvq8coprqajsy",0,"177.csv","","null","resources/images/fishbone.png","null","",NA,NA,NA,NA,""
"image-keyboard-response",404,66372702,"0.0-3.131-0.131","94xvq8coprqajsy",0,"177.csv","","358.39999997615814","resources/trios/L2T1A2.jpg","37","restless",0.4,0.7,0.4,0.197696594937216,"true"
"image-keyboard-response",405,66373109,"0.0-3.131-1.131","94xvq8coprqajsy",0,"177.csv","","null","resources/maskTrios/L2BB.jpg","null","",NA,NA,NA,NA,""
"image-keyboard-response",406,66374317,"0.0-3.131-2.131","94xvq8coprqajsy",0,"177.csv","","null","resources/images/coin2.png","null","",NA,NA,NA,NA,""
"image-keyboard-response",407,66375345,"0.0-3.132-0.132","94xvq8coprqajsy",0,"177.csv","","1026.5999999940395","resources/trios/L2T4A3.jpg","39","restless",0.4,0.7,0.4,0.335066782460173,"true"
"image-keyboard-response",408,66375748,"0.0-3.132-1.132","94xvq8coprqajsy",0,"177.csv","","null","resources/maskTrios/BBA3.jpg","null","",NA,NA,NA,NA,""
"image-keyboard-response",409,66376957,"0.0-3.132-2.132","94xvq8coprqajsy",0,"177.csv","","null","resources/images/coin2.png","null","",NA,NA,NA,NA,""
"image-keyboard-response",410,66377367,"0.0-3.133-0.133","94xvq8coprqajsy",0,"177.csv","","409.09999999403954","resources/trios/L4T4A2.jpg","37","restless",0.4,0.7,0.4,0.608170141837855,"false"
"image-keyboard-response",411,66377773,"0.0-3.133-1.133","94xvq8coprqajsy",0,"177.csv","","null","resources/maskTrios/L4BB.jpg","null","",NA,NA,NA,NA,""
"image-keyboard-response",412,66378981,"0.0-3.133-2.133","94xvq8coprqajsy",0,"177.csv","","null","resources/images/fishbone.png","null","",NA,NA,NA,NA,""
"image-keyboard-response",413,66379231,"0.0-3.134-0.134","94xvq8coprqajsy",0,"177.csv","","249.19999998807907","resources/trios/L2T1A2.jpg","38","restless",0.4,0.7,0.4,0.447681788470888,"true"
"image-keyboard-response",414,66379638,"0.0-3.134-1.134","94xvq8coprqajsy",0,"177.csv","","null","resources/maskTrios/BT1B.jpg","null","",NA,NA,NA,NA,""
"image-keyboard-response",415,66380846,"0.0-3.134-2.134","94xvq8coprqajsy",0,"177.csv","","null","resources/images/coin2.png","null","",NA,NA,NA,NA,""
"image-keyboard-response",416,66381145,"0.0-3.135-0.135","94xvq8coprqajsy",0,"177.csv","","297.40000000596046","resources/trios/L4T4A2.jpg","39","restless",0.4,0.7,0.4,0.885091866638348,"false"
"image-keyboard-response",417,66381550,"0.0-3.135-1.135","94xvq8coprqajsy",0,"177.csv","","null","resources/maskTrios/BBA2.jpg","null","",NA,NA,NA,NA,""
"image-keyboard-response",418,66382758,"0.0-3.135-2.135","94xvq8coprqajsy",0,"177.csv","","null","resources/images/fishbone.png","null","",NA,NA,NA,NA,""
"image-keyboard-response",419,66383051,"0.0-3.136-0.136","94xvq8coprqajsy",0,"177.csv","","291.59999999403954","resources/trios/L2T1A3.jpg","37","restless",0.4,0.7,0.4,0.455194270191344,"false"
"image-keyboard-response",420,66383454,"0.0-3.136-1.136","94xvq8coprqajsy",0,"177.csv","","null","resources/maskTrios/L2BB.jpg","null","",NA,NA,NA,NA,""
"image-keyboard-response",421,66384660,"0.0-3.136-2.136","94xvq8coprqajsy",0,"177.csv","","null","resources/images/fishbone.png","null","",NA,NA,NA,NA,""
"image-keyboard-response",422,66385491,"0.0-3.137-0.137","94xvq8coprqajsy",0,"177.csv","","830.0999999940395","resources/trios/L4T1A3.jpg","39","restless",0.3,0.7,0.4,0.743535233156195,"false"
"image-keyboard-response",423,66385901,"0.0-3.137-1.137","94xvq8coprqajsy",0,"177.csv","","null","resources/maskTrios/BBA3.jpg","null","",NA,NA,NA,NA,""
"image-keyboard-response",424,66387110,"0.0-3.137-2.137","94xvq8coprqajsy",0,"177.csv","","null","resources/images/fishbone.png","null","",NA,NA,NA,NA,""
"image-keyboard-response",425,66387370,"0.0-3.138-0.138","94xvq8coprqajsy",0,"177.csv","","258.80000001192093","resources/trios/L4T4A3.jpg","38","restless",0.3,0.7,0.5,0.845973062493707,"false"
"image-keyboard-response",426,66387774,"0.0-3.138-1.138","94xvq8coprqajsy",0,"177.csv","","null","resources/maskTrios/BT4B.jpg","null","",NA,NA,NA,NA,""
"image-keyboard-response",427,66388981,"0.0-3.138-2.138","94xvq8coprqajsy",0,"177.csv","","null","resources/images/fishbone.png","null","",NA,NA,NA,NA,""
"image-keyboard-response",428,66389273,"0.0-3.139-0.139","94xvq8coprqajsy",0,"177.csv","","291","resources/trios/L4T4A2.jpg","37","restless",0.3,0.7,0.5,0.69008306310321,"false"
"image-keyboard-response",429,66389676,"0.0-3.139-1.139","94xvq8coprqajsy",0,"177.csv","","null","resources/maskTrios/L4BB.jpg","null","",NA,NA,NA,NA,""
"image-keyboard-response",430,66390886,"0.0-3.139-2.139","94xvq8coprqajsy",0,"177.csv","","null","resources/images/fishbone.png","null","",NA,NA,NA,NA,""
"image-keyboard-response",431,66391151,"0.0-3.140-0.140","94xvq8coprqajsy",0,"177.csv","","263.09999999403954","resources/trios/L2T1A2.jpg","39","restless",0.3,0.7,0.5,0.685962430379371,"false"
"image-keyboard-response",432,66391558,"0.0-3.140-1.140","94xvq8coprqajsy",0,"177.csv","","null","resources/maskTrios/BBA2.jpg","null","",NA,NA,NA,NA,""
"image-keyboard-response",433,66392766,"0.0-3.140-2.140","94xvq8coprqajsy",0,"177.csv","","null","resources/images/fishbone.png","null","",NA,NA,NA,NA,""
"image-keyboard-response",434,66393056,"0.0-3.141-0.141","94xvq8coprqajsy",0,"177.csv","","288.90000000596046","resources/trios/L2T4A3.jpg","37","restless",0.3,0.7,0.5,0.0147404964561733,"true"
"image-keyboard-response",435,66393462,"0.0-3.141-1.141","94xvq8coprqajsy",0,"177.csv","","null","resources/maskTrios/L2BB.jpg","null","",NA,NA,NA,NA,""
"image-keyboard-response",436,66394671,"0.0-3.141-2.141","94xvq8coprqajsy",0,"177.csv","","null","resources/images/coin2.png","null","",NA,NA,NA,NA,""
"image-keyboard-response",437,66394932,"0.0-3.142-0.142","94xvq8coprqajsy",0,"177.csv","","258.80000001192093","resources/trios/L2T4A2.jpg","39","restless",0.3,0.6,0.5,0.733573324977258,"false"
"image-keyboard-response",438,66395342,"0.0-3.142-1.142","94xvq8coprqajsy",0,"177.csv","","null","resources/maskTrios/BBA2.jpg","null","",NA,NA,NA,NA,""
"image-keyboard-response",439,66396550,"0.0-3.142-2.142","94xvq8coprqajsy",0,"177.csv","","null","resources/images/fishbone.png","null","",NA,NA,NA,NA,""
"image-keyboard-response",440,66396943,"0.0-3.143-0.143","94xvq8coprqajsy",0,"177.csv","","391.5","resources/trios/L2T1A3.jpg","38","restless",0.3,0.6,0.5,0.950882495904655,"false"
"image-keyboard-response",441,66397350,"0.0-3.143-1.143","94xvq8coprqajsy",0,"177.csv","","null","resources/maskTrios/BT1B.jpg","null","",NA,NA,NA,NA,""
"image-keyboard-response",442,66398556,"0.0-3.143-2.143","94xvq8coprqajsy",0,"177.csv","","null","resources/images/fishbone.png","null","",NA,NA,NA,NA,""
"image-keyboard-response",443,66398811,"0.0-3.144-0.144","94xvq8coprqajsy",0,"177.csv","","253.7999999821186","resources/trios/L2T4A3.jpg","37","restless",0.3,0.6,0.6,0.6233059038497,"false"
"image-keyboard-response",444,66399214,"0.0-3.144-1.144","94xvq8coprqajsy",0,"177.csv","","null","resources/maskTrios/L2BB.jpg","null","",NA,NA,NA,NA,""
"image-keyboard-response",445,66400422,"0.0-3.144-2.144","94xvq8coprqajsy",0,"177.csv","","null","resources/images/fishbone.png","null","",NA,NA,NA,NA,""
"image-keyboard-response",446,66400753,"0.0-3.145-0.145","94xvq8coprqajsy",0,"177.csv","","330.7999999821186","resources/trios/L4T1A3.jpg","39","restless",0.4,0.6,0.6,0.31784325843403,"true"
"image-keyboard-response",447,66401158,"0.0-3.145-1.145","94xvq8coprqajsy",0,"177.csv","","null","resources/maskTrios/BBA3.jpg","null","",NA,NA,NA,NA,""
"image-keyboard-response",448,66402366,"0.0-3.145-2.145","94xvq8coprqajsy",0,"177.csv","","null","resources/images/coin2.png","null","",NA,NA,NA,NA,""
"image-keyboard-response",449,66402704,"0.0-3.146-0.146","94xvq8coprqajsy",0,"177.csv","","336","resources/trios/L4T1A2.jpg","39","restless",0.5,0.6,0.5,0.425829452557073,"true"
"image-keyboard-response",450,66403109,"0.0-3.146-1.146","94xvq8coprqajsy",0,"177.csv","","null","resources/maskTrios/BBA2.jpg","null","",NA,NA,NA,NA,""
"image-keyboard-response",451,66404318,"0.0-3.146-2.146","94xvq8coprqajsy",0,"177.csv","","null","resources/images/coin2.png","null","",NA,NA,NA,NA,""
"image-keyboard-response",452,66404712,"0.0-3.147-0.147","94xvq8coprqajsy",0,"177.csv","","392.09999999403954","resources/trios/L4T4A3.jpg","38","restless",0.5,0.5,0.5,0.803829758912773,"false"
"image-keyboard-response",453,66405117,"0.0-3.147-1.147","94xvq8coprqajsy",0,"177.csv","","null","resources/maskTrios/BT4B.jpg","null","",NA,NA,NA,NA,""
"image-keyboard-response",454,66406326,"0.0-3.147-2.147","94xvq8coprqajsy",0,"177.csv","","null","resources/images/fishbone.png","null","",NA,NA,NA,NA,""
"image-keyboard-response",455,66406590,"0.0-3.148-0.148","94xvq8coprqajsy",0,"177.csv","","262.09999999403954","resources/trios/L4T4A3.jpg","39","restless",0.5,0.5,0.5,0.138794722016427,"true"
"image-keyboard-response",456,66406997,"0.0-3.148-1.148","94xvq8coprqajsy",0,"177.csv","","null","resources/maskTrios/BBA3.jpg","null","",NA,NA,NA,NA,""
"image-keyboard-response",457,66408204,"0.0-3.148-2.148","94xvq8coprqajsy",0,"177.csv","","null","resources/images/coin2.png","null","",NA,NA,NA,NA,""
"image-keyboard-response",458,66408741,"0.0-3.149-0.149","94xvq8coprqajsy",0,"177.csv","","535.2999999821186","resources/trios/L2T1A3.jpg","37","restless",0.5,0.5,0.5,0.0849488924214463,"true"
"image-keyboard-response",459,66409149,"0.0-3.149-1.149","94xvq8coprqajsy",0,"177.csv","","null","resources/maskTrios/L2BB.jpg","null","",NA,NA,NA,NA,""
"image-keyboard-response",460,66410358,"0.0-3.149-2.149","94xvq8coprqajsy",0,"177.csv","","null","resources/images/coin2.png","null","",NA,NA,NA,NA,""
"image-keyboard-response",461,66410659,"0.0-3.150-0.150","94xvq8coprqajsy",0,"177.csv","","299.10000002384186","resources/trios/L2T4A2.jpg","38","restless",0.5,0.5,0.5,0.382337066862305,"true"
"image-keyboard-response",462,66411062,"0.0-3.150-1.150","94xvq8coprqajsy",0,"177.csv","","null","resources/maskTrios/BT4B.jpg","null","",NA,NA,NA,NA,""
"image-keyboard-response",463,66412268,"0.0-3.150-2.150","94xvq8coprqajsy",0,"177.csv","","null","resources/images/coin2.png","null","",NA,NA,NA,NA,""
"image-keyboard-response",464,66412776,"0.0-3.151-0.151","94xvq8coprqajsy",0,"177.csv","","506.5","resources/trios/L4T4A3.jpg","39","restless",0.5,0.5,0.5,0.420727024727022,"true"
"image-keyboard-response",465,66413181,"0.0-3.151-1.151","94xvq8coprqajsy",0,"177.csv","","null","resources/maskTrios/BBA3.jpg","null","",NA,NA,NA,NA,""
"image-keyboard-response",466,66414390,"0.0-3.151-2.151","94xvq8coprqajsy",0,"177.csv","","null","resources/images/coin2.png","null","",NA,NA,NA,NA,""
"image-keyboard-response",467,66414849,"0.0-3.152-0.152","94xvq8coprqajsy",0,"177.csv","","456.7999999821186","resources/trios/L4T4A2.jpg","37","restless",0.5,0.5,0.5,0.661630985035752,"false"
"image-keyboard-response",468,66415254,"0.0-3.152-1.152","94xvq8coprqajsy",0,"177.csv","","null","resources/maskTrios/L4BB.jpg","null","",NA,NA,NA,NA,""
"image-keyboard-response",469,66416461,"0.0-3.152-2.152","94xvq8coprqajsy",0,"177.csv","","null","resources/images/fishbone.png","null","",NA,NA,NA,NA,""
"image-keyboard-response",470,66416753,"0.0-3.153-0.153","94xvq8coprqajsy",0,"177.csv","","291.2000000178814","resources/trios/L2T4A2.jpg","39","restless",0.5,0.5,0.5,0.962645763379105,"false"
"image-keyboard-response",471,66417158,"0.0-3.153-1.153","94xvq8coprqajsy",0,"177.csv","","null","resources/maskTrios/BBA2.jpg","null","",NA,NA,NA,NA,""
"image-keyboard-response",472,66418366,"0.0-3.153-2.153","94xvq8coprqajsy",0,"177.csv","","null","resources/images/fishbone.png","null","",NA,NA,NA,NA,""
"image-keyboard-response",473,66418765,"0.0-3.154-0.154","94xvq8coprqajsy",0,"177.csv","","398.19999998807907","resources/trios/L4T1A2.jpg","37","restless",0.5,0.5,0.5,0.604517829266799,"false"
"image-keyboard-response",474,66419173,"0.0-3.154-1.154","94xvq8coprqajsy",0,"177.csv","","null","resources/maskTrios/L4BB.jpg","null","",NA,NA,NA,NA,""
"image-keyboard-response",475,66420382,"0.0-3.154-2.154","94xvq8coprqajsy",0,"177.csv","","null","resources/images/fishbone.png","null","",NA,NA,NA,NA,""
"image-keyboard-response",476,66420651,"0.0-3.155-0.155","94xvq8coprqajsy",0,"177.csv","","267.2000000178814","resources/trios/L4T1A3.jpg","39","restless",0.5,0.5,0.5,0.17493091710218,"true"
"image-keyboard-response",477,66421053,"0.0-3.155-1.155","94xvq8coprqajsy",0,"177.csv","","null","resources/maskTrios/BBA3.jpg","null","",NA,NA,NA,NA,""
"image-keyboard-response",478,66422261,"0.0-3.155-2.155","94xvq8coprqajsy",0,"177.csv","","null","resources/images/coin2.png","null","",NA,NA,NA,NA,""
"image-keyboard-response",479,66426172,"0.0-3.156-0.156","94xvq8coprqajsy",0,"177.csv","","3909.4000000059605","resources/trios/L2T1A3.jpg","37","restless",0.5,0.5,0.4,0.330943669784588,"true"
"image-keyboard-response",480,66426582,"0.0-3.156-1.156","94xvq8coprqajsy",0,"177.csv","","null","resources/maskTrios/L2BB.jpg","null","",NA,NA,NA,NA,""
"image-keyboard-response",481,66427790,"0.0-3.156-2.156","94xvq8coprqajsy",0,"177.csv","","null","resources/images/coin2.png","null","",NA,NA,NA,NA,""
"image-keyboard-response",482,66428106,"0.0-3.157-0.157","94xvq8coprqajsy",0,"177.csv","","314.19999998807907","resources/trios/L4T1A2.jpg","39","restless",0.4,0.5,0.4,0.429172674347988,"false"
"image-keyboard-response",483,66428510,"0.0-3.157-1.157","94xvq8coprqajsy",0,"177.csv","","null","resources/maskTrios/BBA2.jpg","null","",NA,NA,NA,NA,""
"image-keyboard-response",484,66429718,"0.0-3.157-2.157","94xvq8coprqajsy",0,"177.csv","","null","resources/images/fishbone.png","null","",NA,NA,NA,NA,""
"image-keyboard-response",485,66430271,"0.0-3.158-0.158","94xvq8coprqajsy",0,"177.csv","","550.9000000059605","resources/trios/L2T1A3.jpg","38","restless",0.4,0.5,0.4,0.556094308450066,"false"
"image-keyboard-response",486,66430677,"0.0-3.158-1.158","94xvq8coprqajsy",0,"177.csv","","null","resources/maskTrios/BT1B.jpg","null","",NA,NA,NA,NA,""
"image-keyboard-response",487,66431886,"0.0-3.158-2.158","94xvq8coprqajsy",0,"177.csv","","null","resources/images/fishbone.png","null","",NA,NA,NA,NA,""
"image-keyboard-response",488,66432571,"0.0-3.159-0.159","94xvq8coprqajsy",0,"177.csv","","683.5","resources/trios/L2T4A3.jpg","37","restless",0.5,0.5,0.4,0.484546838648592,"true"
"image-keyboard-response",489,66432981,"0.0-3.159-1.159","94xvq8coprqajsy",0,"177.csv","","null","resources/maskTrios/L2BB.jpg","null","",NA,NA,NA,NA,""
"image-keyboard-response",490,66434189,"0.0-3.159-2.159","94xvq8coprqajsy",0,"177.csv","","null","resources/images/coin2.png","null","",NA,NA,NA,NA,""
"image-keyboard-response",491,66434780,"0.0-3.160-0.160","94xvq8coprqajsy",0,"177.csv","","589.1000000238419","resources/trios/L2T1A2.jpg","38","restless",0.5,0.5,0.4,0.771414078275808,"false"
"image-keyboard-response",492,66435190,"0.0-3.160-1.160","94xvq8coprqajsy",0,"177.csv","","null","resources/maskTrios/BT1B.jpg","null","",NA,NA,NA,NA,""
"image-keyboard-response",493,66436397,"0.0-3.160-2.160","94xvq8coprqajsy",0,"177.csv","","null","resources/images/fishbone.png","null","",NA,NA,NA,NA,""
"image-keyboard-response",494,66436749,"0.0-3.161-0.161","94xvq8coprqajsy",0,"177.csv","","350","resources/trios/L2T1A3.jpg","39","restless",0.5,0.5,0.4,0.395298655208933,"true"
"image-keyboard-response",495,66437158,"0.0-3.161-1.161","94xvq8coprqajsy",0,"177.csv","","null","resources/maskTrios/BBA3.jpg","null","",NA,NA,NA,NA,""
"image-keyboard-response",496,66438366,"0.0-3.161-2.161","94xvq8coprqajsy",0,"177.csv","","null","resources/images/coin2.png","null","",NA,NA,NA,NA,""
"image-keyboard-response",497,66438817,"0.0-3.162-0.162","94xvq8coprqajsy",0,"177.csv","","449.09999999403954","resources/trios/L4T1A3.jpg","37","restless",0.5,0.5,0.4,0.247382522353449,"true"
"image-keyboard-response",498,66439222,"0.0-3.162-1.162","94xvq8coprqajsy",0,"177.csv","","null","resources/maskTrios/L4BB.jpg","null","",NA,NA,NA,NA,""
"image-keyboard-response",499,66440431,"0.0-3.162-2.162","94xvq8coprqajsy",0,"177.csv","","null","resources/images/coin2.png","null","",NA,NA,NA,NA,""
"image-keyboard-response",500,66440679,"0.0-3.163-0.163","94xvq8coprqajsy",0,"177.csv","","247.30000001192093","resources/trios/L4T4A2.jpg","39","restless",0.6,0.5,0.4,0.767076349930207,"false"
"image-keyboard-response",501,66441085,"0.0-3.163-1.163","94xvq8coprqajsy",0,"177.csv","","null","resources/maskTrios/BBA2.jpg","null","",NA,NA,NA,NA,""
"image-keyboard-response",502,66442294,"0.0-3.163-2.163","94xvq8coprqajsy",0,"177.csv","","null","resources/images/fishbone.png","null","",NA,NA,NA,NA,""
"image-keyboard-response",503,66444585,"0.0-3.164-0.164","94xvq8coprqajsy",0,"177.csv","","2288.199999988079","resources/trios/L4T4A3.jpg","39","restless",0.6,0.4,0.4,0.174588547555519,"true"
"image-keyboard-response",504,66444990,"0.0-3.164-1.164","94xvq8coprqajsy",0,"177.csv","","null","resources/maskTrios/BBA3.jpg","null","",NA,NA,NA,NA,""
"image-keyboard-response",505,66446196,"0.0-3.164-2.164","94xvq8coprqajsy",0,"177.csv","","null","resources/images/coin2.png","null","",NA,NA,NA,NA,""
"image-keyboard-response",506,66446492,"0.0-3.165-0.165","94xvq8coprqajsy",0,"177.csv","","294.30000001192093","resources/trios/L4T1A3.jpg","37","restless",0.6,0.5,0.4,0.619966493814106,"false"
"image-keyboard-response",507,66446902,"0.0-3.165-1.165","94xvq8coprqajsy",0,"177.csv","","null","resources/maskTrios/L4BB.jpg","null","",NA,NA,NA,NA,""
"image-keyboard-response",508,66448110,"0.0-3.165-2.165","94xvq8coprqajsy",0,"177.csv","","null","resources/images/fishbone.png","null","",NA,NA,NA,NA,""
"image-keyboard-response",509,66448362,"0.0-3.166-0.166","94xvq8coprqajsy",0,"177.csv","","250.90000000596046","resources/trios/L4T4A2.jpg","38","restless",0.6,0.5,0.4,0.191807210743319,"true"
"image-keyboard-response",510,66448766,"0.0-3.166-1.166","94xvq8coprqajsy",0,"177.csv","","null","resources/maskTrios/BT4B.jpg","null","",NA,NA,NA,NA,""
"image-keyboard-response",511,66449973,"0.0-3.166-2.166","94xvq8coprqajsy",0,"177.csv","","null","resources/images/coin2.png","null","",NA,NA,NA,NA,""
"image-keyboard-response",512,66450662,"0.0-3.167-0.167","94xvq8coprqajsy",0,"177.csv","","687.9000000059605","resources/trios/L4T4A2.jpg","39","restless",0.6,0.5,0.4,0.292173774475594,"true"
"image-keyboard-response",513,66451068,"0.0-3.167-1.167","94xvq8coprqajsy",0,"177.csv","","null","resources/maskTrios/BBA2.jpg","null","",NA,NA,NA,NA,""
"image-keyboard-response",514,66452278,"0.0-3.167-2.167","94xvq8coprqajsy",0,"177.csv","","null","resources/images/coin2.png","null","",NA,NA,NA,NA,""
"image-keyboard-response",515,66452668,"0.0-3.168-0.168","94xvq8coprqajsy",0,"177.csv","","388.19999998807907","resources/trios/L2T1A3.jpg","37","restless",0.7,0.5,0.5,0.77404848546201,"false"
"image-keyboard-response",516,66453078,"0.0-3.168-1.168","94xvq8coprqajsy",0,"177.csv","","null","resources/maskTrios/L2BB.jpg","null","",NA,NA,NA,NA,""
"image-keyboard-response",517,66454286,"0.0-3.168-2.168","94xvq8coprqajsy",0,"177.csv","","null","resources/images/fishbone.png","null","",NA,NA,NA,NA,""
"image-keyboard-response",518,66454554,"0.0-3.169-0.169","94xvq8coprqajsy",0,"177.csv","","266.2000000178814","resources/trios/L4T4A2.jpg","39","restless",0.7,0.5,0.5,0.0967148506892344,"true"
"image-keyboard-response",519,66454958,"0.0-3.169-1.169","94xvq8coprqajsy",0,"177.csv","","null","resources/maskTrios/BBA2.jpg","null","",NA,NA,NA,NA,""
"image-keyboard-response",520,66456166,"0.0-3.169-2.169","94xvq8coprqajsy",0,"177.csv","","null","resources/images/coin2.png","null","",NA,NA,NA,NA,""
"image-keyboard-response",521,66456394,"0.0-3.170-0.170","94xvq8coprqajsy",0,"177.csv","","226.30000001192093","resources/trios/L2T1A3.jpg","38","restless",0.7,0.5,0.5,0.936508193954948,"false"
"image-keyboard-response",522,66456797,"0.0-3.170-1.170","94xvq8coprqajsy",0,"177.csv","","null","resources/maskTrios/BT1B.jpg","null","",NA,NA,NA,NA,""
"image-keyboard-response",523,66458005,"0.0-3.170-2.170","94xvq8coprqajsy",0,"177.csv","","null","resources/images/fishbone.png","null","",NA,NA,NA,NA,""
"image-keyboard-response",524,66458373,"0.0-3.171-0.171","94xvq8coprqajsy",0,"177.csv","","367.2999999821186","resources/trios/L4T1A2.jpg","37","restless",0.7,0.5,0.5,0.560583601655408,"true"
"image-keyboard-response",525,66458782,"0.0-3.171-1.171","94xvq8coprqajsy",0,"177.csv","","null","resources/maskTrios/L4BB.jpg","null","",NA,NA,NA,NA,""
"image-keyboard-response",526,66459989,"0.0-3.171-2.171","94xvq8coprqajsy",0,"177.csv","","null","resources/images/coin2.png","null","",NA,NA,NA,NA,""
"image-keyboard-response",527,66460324,"0.0-3.172-0.172","94xvq8coprqajsy",0,"177.csv","","334","resources/trios/L4T4A3.jpg","39","restless",0.7,0.5,0.5,0.11961359018816,"true"
"image-keyboard-response",528,66460734,"0.0-3.172-1.172","94xvq8coprqajsy",0,"177.csv","","null","resources/maskTrios/BBA3.jpg","null","",NA,NA,NA,NA,""
"image-keyboard-response",529,66461942,"0.0-3.172-2.172","94xvq8coprqajsy",0,"177.csv","","null","resources/images/coin2.png","null","",NA,NA,NA,NA,""
"image-keyboard-response",530,66462138,"0.0-3.173-0.173","94xvq8coprqajsy",0,"177.csv","","194.60000002384186","resources/trios/L2T4A3.jpg","38","restless",0.7,0.5,0.5,0.198672732599493,"true"
"image-keyboard-response",531,66462542,"0.0-3.173-1.173","94xvq8coprqajsy",0,"177.csv","","null","resources/maskTrios/BT4B.jpg","null","",NA,NA,NA,NA,""
"image-keyboard-response",532,66463750,"0.0-3.173-2.173","94xvq8coprqajsy",0,"177.csv","","null","resources/images/coin2.png","null","",NA,NA,NA,NA,""
"image-keyboard-response",533,66464100,"0.0-3.174-0.174","94xvq8coprqajsy",0,"177.csv","","347.90000000596046","resources/trios/L4T4A2.jpg","37","restless",0.7,0.5,0.5,0.485693272932453,"true"
"image-keyboard-response",534,66464510,"0.0-3.174-1.174","94xvq8coprqajsy",0,"177.csv","","null","resources/maskTrios/L4BB.jpg","null","",NA,NA,NA,NA,""
"image-keyboard-response",535,66465718,"0.0-3.174-2.174","94xvq8coprqajsy",0,"177.csv","","null","resources/images/coin2.png","null","",NA,NA,NA,NA,""
"image-keyboard-response",536,66466033,"0.0-3.175-0.175","94xvq8coprqajsy",0,"177.csv","","314.40000000596046","resources/trios/L4T4A2.jpg","39","restless",0.7,0.5,0.5,0.45899273496122,"true"
"image-keyboard-response",537,66466438,"0.0-3.175-1.175","94xvq8coprqajsy",0,"177.csv","","null","resources/maskTrios/BBA2.jpg","null","",NA,NA,NA,NA,""
"image-keyboard-response",538,66467646,"0.0-3.175-2.175","94xvq8coprqajsy",0,"177.csv","","null","resources/images/coin2.png","null","",NA,NA,NA,NA,""
"image-keyboard-response",539,66467902,"0.0-3.176-0.176","94xvq8coprqajsy",0,"177.csv","","255.19999998807907","resources/trios/L2T4A2.jpg","37","restless",0.7,0.6,0.5,0.792773497392117,"false"
"image-keyboard-response",540,66468309,"0.0-3.176-1.176","94xvq8coprqajsy",0,"177.csv","","null","resources/maskTrios/L2BB.jpg","null","",NA,NA,NA,NA,""
"image-keyboard-response",541,66469518,"0.0-3.176-2.176","94xvq8coprqajsy",0,"177.csv","","null","resources/images/fishbone.png","null","",NA,NA,NA,NA,""
"image-keyboard-response",542,66469794,"0.0-3.177-0.177","94xvq8coprqajsy",0,"177.csv","","274.19999998807907","resources/trios/L2T4A3.jpg","38","restless",0.7,0.6,0.5,0.18024104111595,"true"
"image-keyboard-response",543,66470196,"0.0-3.177-1.177","94xvq8coprqajsy",0,"177.csv","","null","resources/maskTrios/BT4B.jpg","null","",NA,NA,NA,NA,""
"image-keyboard-response",544,66471406,"0.0-3.177-2.177","94xvq8coprqajsy",0,"177.csv","","null","resources/images/coin2.png","null","",NA,NA,NA,NA,""
"image-keyboard-response",545,66471932,"0.0-3.178-0.178","94xvq8coprqajsy",0,"177.csv","","523.9000000059605","resources/trios/L4T1A2.jpg","38","restless",0.7,0.6,0.5,0.0513037842294572,"true"
"image-keyboard-response",546,66472341,"0.0-3.178-1.178","94xvq8coprqajsy",0,"177.csv","","null","resources/maskTrios/BT1B.jpg","null","",NA,NA,NA,NA,""
"image-keyboard-response",547,66473550,"0.0-3.178-2.178","94xvq8coprqajsy",0,"177.csv","","null","resources/images/coin2.png","null","",NA,NA,NA,NA,""
"image-keyboard-response",548,66473857,"0.0-3.179-0.179","94xvq8coprqajsy",0,"177.csv","","304.69999998807907","resources/trios/L2T1A2.jpg","39","restless",0.7,0.6,0.5,0.416689939240545,"true"
"image-keyboard-response",549,66474262,"0.0-3.179-1.179","94xvq8coprqajsy",0,"177.csv","","null","resources/maskTrios/BBA2.jpg","null","",NA,NA,NA,NA,""
"image-keyboard-response",550,66475470,"0.0-3.179-2.179","94xvq8coprqajsy",0,"177.csv","","null","resources/images/coin2.png","null","",NA,NA,NA,NA,""
"image-keyboard-response",551,66476076,"0.0-3.180-0.180","94xvq8coprqajsy",0,"177.csv","","605","resources/trios/L4T1A3.jpg","37","restless",0.6,0.5,0.5,0.225571744619858,"true"
"image-keyboard-response",552,66476485,"0.0-3.180-1.180","94xvq8coprqajsy",0,"177.csv","","null","resources/maskTrios/L4BB.jpg","null","",NA,NA,NA,NA,""
"image-keyboard-response",553,66477694,"0.0-3.180-2.180","94xvq8coprqajsy",0,"177.csv","","null","resources/images/coin2.png","null","",NA,NA,NA,NA,""
"image-keyboard-response",554,66478550,"0.0-3.181-0.181","94xvq8coprqajsy",0,"177.csv","","854.4000000059605","resources/trios/L4T1A2.jpg","39","restless",0.6,0.5,0.6,0.367764843374511,"true"
"image-keyboard-response",555,66478958,"0.0-3.181-1.181","94xvq8coprqajsy",0,"177.csv","","null","resources/maskTrios/BBA2.jpg","null","",NA,NA,NA,NA,""
"image-keyboard-response",556,66480165,"0.0-3.181-2.181","94xvq8coprqajsy",0,"177.csv","","null","resources/images/coin2.png","null","",NA,NA,NA,NA,""
"image-keyboard-response",557,66480531,"0.0-3.182-0.182","94xvq8coprqajsy",0,"177.csv","","365.30000001192093","resources/trios/L4T1A3.jpg","37","restless",0.6,0.5,0.7,0.82525131875983,"false"
"image-keyboard-response",558,66480941,"0.0-3.182-1.182","94xvq8coprqajsy",0,"177.csv","","null","resources/maskTrios/L4BB.jpg","null","",NA,NA,NA,NA,""
"image-keyboard-response",559,66482149,"0.0-3.182-2.182","94xvq8coprqajsy",0,"177.csv","","null","resources/images/fishbone.png","null","",NA,NA,NA,NA,""
"image-keyboard-response",560,66482859,"0.0-3.183-0.183","94xvq8coprqajsy",0,"177.csv","","708.5999999940395","resources/trios/L2T1A2.jpg","39","restless",0.6,0.5,0.7,0.411281629546567,"true"
"image-keyboard-response",561,66483262,"0.0-3.183-1.183","94xvq8coprqajsy",0,"177.csv","","null","resources/maskTrios/BBA2.jpg","null","",NA,NA,NA,NA,""
"image-keyboard-response",562,66484470,"0.0-3.183-2.183","94xvq8coprqajsy",0,"177.csv","","null","resources/images/coin2.png","null","",NA,NA,NA,NA,""
"image-keyboard-response",563,66484749,"0.0-3.184-0.184","94xvq8coprqajsy",0,"177.csv","","278.2999999821186","resources/trios/L4T4A2.jpg","37","restless",0.6,0.5,0.7,0.0872444333770479,"true"
"image-keyboard-response",564,66485158,"0.0-3.184-1.184","94xvq8coprqajsy",0,"177.csv","","null","resources/maskTrios/L4BB.jpg","null","",NA,NA,NA,NA,""
"image-keyboard-response",565,66486366,"0.0-3.184-2.184","94xvq8coprqajsy",0,"177.csv","","null","resources/images/coin2.png","null","",NA,NA,NA,NA,""
"image-keyboard-response",566,66486711,"0.0-3.185-0.185","94xvq8coprqajsy",0,"177.csv","","343","resources/trios/L4T1A3.jpg","39","restless",0.6,0.5,0.7,0.645248402745848,"true"
"image-keyboard-response",567,66487117,"0.0-3.185-1.185","94xvq8coprqajsy",0,"177.csv","","null","resources/maskTrios/BBA3.jpg","null","",NA,NA,NA,NA,""
"image-keyboard-response",568,66488325,"0.0-3.185-2.185","94xvq8coprqajsy",0,"177.csv","","null","resources/images/coin2.png","null","",NA,NA,NA,NA,""
"image-keyboard-response",569,66488605,"0.0-3.186-0.186","94xvq8coprqajsy",0,"177.csv","","277.90000000596046","resources/trios/L4T4A3.jpg","38","restless",0.6,0.5,0.7,0.480688065848828,"true"
"image-keyboard-response",570,66489014,"0.0-3.186-1.186","94xvq8coprqajsy",0,"177.csv","","null","resources/maskTrios/BT4B.jpg","null","",NA,NA,NA,NA,""
"image-keyboard-response",571,66490221,"0.0-3.186-2.186","94xvq8coprqajsy",0,"177.csv","","null","resources/images/coin2.png","null","",NA,NA,NA,NA,""
"image-keyboard-response",572,66491075,"0.0-3.187-0.187","94xvq8coprqajsy",0,"177.csv","","852.8000000119209","resources/trios/L4T4A3.jpg","39","restless",0.6,0.5,0.6,0.2302962925293,"true"
"image-keyboard-response",573,66491478,"0.0-3.187-1.187","94xvq8coprqajsy",0,"177.csv","","null","resources/maskTrios/BBA3.jpg","null","",NA,NA,NA,NA,""
"image-keyboard-response",574,66492686,"0.0-3.187-2.187","94xvq8coprqajsy",0,"177.csv","","null","resources/images/coin2.png","null","",NA,NA,NA,NA,""
"image-keyboard-response",575,66493169,"0.0-3.188-0.188","94xvq8coprqajsy",0,"177.csv","","482","resources/trios/L2T1A3.jpg","37","restless",0.6,0.5,0.6,0.509573755750036,"true"
"image-keyboard-response",576,66493573,"0.0-3.188-1.188","94xvq8coprqajsy",0,"177.csv","","null","resources/maskTrios/L2BB.jpg","null","",NA,NA,NA,NA,""
"image-keyboard-response",577,66494781,"0.0-3.188-2.188","94xvq8coprqajsy",0,"177.csv","","null","resources/images/coin2.png","null","",NA,NA,NA,NA,""
"image-keyboard-response",578,66496512,"0.0-3.189-0.189","94xvq8coprqajsy",0,"177.csv","","1728.6000000238419","resources/trios/L2T4A3.jpg","39","restless",0.6,0.5,0.6,0.612915349329919,"false"
"image-keyboard-response",579,66496917,"0.0-3.189-1.189","94xvq8coprqajsy",0,"177.csv","","null","resources/maskTrios/BBA3.jpg","null","",NA,NA,NA,NA,""
"image-keyboard-response",580,66498124,"0.0-3.189-2.189","94xvq8coprqajsy",0,"177.csv","","null","resources/images/fishbone.png","null","",NA,NA,NA,NA,""
"image-keyboard-response",581,66498455,"0.0-3.190-0.190","94xvq8coprqajsy",0,"177.csv","","329.19999998807907","resources/trios/L4T4A3.jpg","38","restless",0.6,0.6,0.6,0.743832968690306,"false"
"image-keyboard-response",582,66498862,"0.0-3.190-1.190","94xvq8coprqajsy",0,"177.csv","","null","resources/maskTrios/BT4B.jpg","null","",NA,NA,NA,NA,""
"image-keyboard-response",583,66500070,"0.0-3.190-2.190","94xvq8coprqajsy",0,"177.csv","","null","resources/images/fishbone.png","null","",NA,NA,NA,NA,""
"image-keyboard-response",584,66500378,"0.0-3.191-0.191","94xvq8coprqajsy",0,"177.csv","","305.69999998807907","resources/trios/L2T1A3.jpg","37","restless",0.6,0.6,0.6,0.800304853388515,"false"
"image-keyboard-response",585,66500782,"0.0-3.191-1.191","94xvq8coprqajsy",0,"177.csv","","null","resources/maskTrios/L2BB.jpg","null","",NA,NA,NA,NA,""
"image-keyboard-response",586,66501990,"0.0-3.191-2.191","94xvq8coprqajsy",0,"177.csv","","null","resources/images/fishbone.png","null","",NA,NA,NA,NA,""
"image-keyboard-response",587,66502232,"0.0-3.192-0.192","94xvq8coprqajsy",0,"177.csv","","241.5","resources/trios/L2T1A3.jpg","39","restless",0.6,0.6,0.6,0.542074742047183,"true"
"image-keyboard-response",588,66502638,"0.0-3.192-1.192","94xvq8coprqajsy",0,"177.csv","","null","resources/maskTrios/BBA3.jpg","null","",NA,NA,NA,NA,""
"image-keyboard-response",589,66503849,"0.0-3.192-2.192","94xvq8coprqajsy",0,"177.csv","","null","resources/images/coin2.png","null","",NA,NA,NA,NA,""
"image-keyboard-response",590,66504114,"0.0-3.193-0.193","94xvq8coprqajsy",0,"177.csv","","264.09999999403954","resources/trios/L2T4A3.jpg","38","restless",0.6,0.6,0.6,0.423448257844107,"true"
"image-keyboard-response",591,66504517,"0.0-3.193-1.193","94xvq8coprqajsy",0,"177.csv","","null","resources/maskTrios/BT4B.jpg","null","",NA,NA,NA,NA,""
"image-keyboard-response",592,66505725,"0.0-3.193-2.193","94xvq8coprqajsy",0,"177.csv","","null","resources/images/coin2.png","null","",NA,NA,NA,NA,""
"image-keyboard-response",593,66506044,"0.0-3.194-0.194","94xvq8coprqajsy",0,"177.csv","","318.7000000178814","resources/trios/L2T4A3.jpg","38","restless",0.6,0.6,0.6,0.203753564842599,"true"
"image-keyboard-response",594,66506453,"0.0-3.194-1.194","94xvq8coprqajsy",0,"177.csv","","null","resources/maskTrios/BT4B.jpg","null","",NA,NA,NA,NA,""
"image-keyboard-response",595,66507662,"0.0-3.194-2.194","94xvq8coprqajsy",0,"177.csv","","null","resources/images/coin2.png","null","",NA,NA,NA,NA,""
"image-keyboard-response",596,66508141,"0.0-3.195-0.195","94xvq8coprqajsy",0,"177.csv","","476.7999999821186","resources/trios/L4T1A3.jpg","38","restless",0.6,0.6,0.6,0.58421229305556,"true"
"image-keyboard-response",597,66508551,"0.0-3.195-1.195","94xvq8coprqajsy",0,"177.csv","","null","resources/maskTrios/BT1B.jpg","null","",NA,NA,NA,NA,""
"image-keyboard-response",598,66509758,"0.0-3.195-2.195","94xvq8coprqajsy",0,"177.csv","","null","resources/images/coin2.png","null","",NA,NA,NA,NA,""
"image-keyboard-response",599,66510125,"0.0-3.196-0.196","94xvq8coprqajsy",0,"177.csv","","364.10000002384186","resources/trios/L4T1A3.jpg","37","restless",0.6,0.6,0.6,0.119030092710691,"true"
"image-keyboard-response",600,66510533,"0.0-3.196-1.196","94xvq8coprqajsy",0,"177.csv","","null","resources/maskTrios/L4BB.jpg","null","",NA,NA,NA,NA,""
"image-keyboard-response",601,66511742,"0.0-3.196-2.196","94xvq8coprqajsy",0,"177.csv","","null","resources/images/coin2.png","null","",NA,NA,NA,NA,""
"image-keyboard-response",602,66513525,"0.0-3.197-0.197","94xvq8coprqajsy",0,"177.csv","","1781.5","resources/trios/L4T1A3.jpg","37","restless",0.6,0.6,0.6,0.86250954946955,"false"
"image-keyboard-response",603,66513932,"0.0-3.197-1.197","94xvq8coprqajsy",0,"177.csv","","null","resources/maskTrios/L4BB.jpg","null","",NA,NA,NA,NA,""
"image-keyboard-response",604,66515866,"0.0-3.197-2.197","94xvq8coprqajsy",0,"177.csv","","null","resources/images/fishbone.png","null","",NA,NA,NA,NA,""
"image-keyboard-response",605,66563272,"0.0-3.198-0.198","94xvq8coprqajsy",0,"177.csv","","47404.10000002384","resources/trios/L4T4A3.jpg","38","restless",0.5,0.6,0.6,0.571020880084496,"true"
"image-keyboard-response",606,66563678,"0.0-3.198-1.198","94xvq8coprqajsy",0,"177.csv","","null","resources/maskTrios/BT4B.jpg","null","",NA,NA,NA,NA,""
"image-keyboard-response",607,66564885,"0.0-3.198-2.198","94xvq8coprqajsy",0,"177.csv","","null","resources/images/coin2.png","null","",NA,NA,NA,NA,""
"image-keyboard-response",608,66565193,"0.0-3.199-0.199","94xvq8coprqajsy",0,"177.csv","","307","resources/trios/L2T1A3.jpg","39","restless",0.4,0.6,0.6,0.0738684281605742,"true"
"image-keyboard-response",609,66565597,"0.0-3.199-1.199","94xvq8coprqajsy",0,"177.csv","","null","resources/maskTrios/BBA3.jpg","null","",NA,NA,NA,NA,""
