"trial_type","trial_index","time_elapsed","internal_node_id","subject","participantCode","walkNumber","success","rt","stimulus","key_press","test_part","leftProb","midProb","rightProb","generatedNum","correct"
"pavlovia",0,1025,"0.0-0.0","mwcqrrcczvjsbnx",130,"20.csv","","","","","",NA,NA,NA,NA,""
"fullscreen",1,4716,"0.0-1.0","mwcqrrcczvjsbnx",130,"20.csv","true","","","","",NA,NA,NA,NA,""
"html-keyboard-response",2,10473,"0.0-2.0-0.0","mwcqrrcczvjsbnx",130,"20.csv","","5753.799999982119","<p><font size='6'>Arrrgh!</p></font><p>Can you be the best pirate? Try to find lots of gold! But beware, some islands have more gold than others, and over time, the island with the most gold may change. Can YOU figure it out? </p><font size='6'>GOOD LUCK, CAPTAIN!!!</font><p>Press any key to begin</p>","32","",NA,NA,NA,NA,""
"image-keyboard-response",3,13477,"0.0-2.0-1.0","mwcqrrcczvjsbnx",130,"20.csv","","null","resources/image_sets/111.png","null","",NA,NA,NA,NA,""
"image-keyboard-response",4,18864,"0.0-2.0-2.0","mwcqrrcczvjsbnx",130,"20.csv","","5385.5","resources/image_sets/left_highlight.png","37","",NA,NA,NA,NA,""
"image-keyboard-response",5,20717,"0.0-2.0-3.0","mwcqrrcczvjsbnx",130,"20.csv","","1849.699999988079","resources/image_sets/mid_highlight.png","38","",NA,NA,NA,NA,""
"image-keyboard-response",6,23447,"0.0-2.0-4.0","mwcqrrcczvjsbnx",130,"20.csv","","2728.4000000059605","resources/image_sets/right_highlight.png","39","",NA,NA,NA,NA,""
"image-keyboard-response",7,27901,"0.0-2.0-5.0","mwcqrrcczvjsbnx",130,"20.csv","","4452.5","resources/image_sets/111.png","13","",NA,NA,NA,NA,""
"image-keyboard-response",8,30139,"0.0-2.0-6.0","mwcqrrcczvjsbnx",130,"20.csv","","2236.300000011921","resources/images/coin2.png","13","",NA,NA,NA,NA,""
"image-keyboard-response",9,32496,"0.0-2.0-7.0","mwcqrrcczvjsbnx",130,"20.csv","","2355.4000000059605","resources/images/fishbone.png","13","",NA,NA,NA,NA,""
"html-keyboard-response",10,41083,"0.0-2.0-8.0","mwcqrrcczvjsbnx",130,"20.csv","","8585.5","<p>Your first journey will be a long one, but you will get a well deserved break at the end</p><p>After the break you will have four more journeys, but each will be much shorter than the first, and you will have breaks in between each</p><p>Press Enter to begin</p>","13","",NA,NA,NA,NA,""
"image-keyboard-response",11,43565,"0.0-3.0-0.0","mwcqrrcczvjsbnx",130,"20.csv","","2479.4000000059605","resources/trios/L2T2A3.jpg","38","restless",0.7,0.3,0.9,0.898595863155123,"false"
"image-keyboard-response",12,43974,"0.0-3.0-1.0","mwcqrrcczvjsbnx",130,"20.csv","","null","resources/maskTrios/BT2B.jpg","null","",NA,NA,NA,NA,""
"image-keyboard-response",13,45177,"0.0-3.0-2.0","mwcqrrcczvjsbnx",130,"20.csv","","null","resources/images/fishbone.png","null","",NA,NA,NA,NA,""
"image-keyboard-response",14,46624,"0.0-3.1-0.1","mwcqrrcczvjsbnx",130,"20.csv","","1443.5999999940395","resources/trios/L2T1A2.jpg","37","restless",0.7,0.3,0.9,0.765758846679479,"false"
"image-keyboard-response",15,47028,"0.0-3.1-1.1","mwcqrrcczvjsbnx",130,"20.csv","","null","resources/maskTrios/L2BB.jpg","null","",NA,NA,NA,NA,""
"image-keyboard-response",16,48233,"0.0-3.1-2.1","mwcqrrcczvjsbnx",130,"20.csv","","null","resources/images/fishbone.png","null","",NA,NA,NA,NA,""
"image-keyboard-response",17,48927,"0.0-3.2-0.2","mwcqrrcczvjsbnx",130,"20.csv","","691.8000000119209","resources/trios/L1T2A2.jpg","38","restless",0.6,0.3,0.9,0.108237252486967,"true"
"image-keyboard-response",18,49333,"0.0-3.2-1.2","mwcqrrcczvjsbnx",130,"20.csv","","null","resources/maskTrios/BT2B.jpg","null","",NA,NA,NA,NA,""
"image-keyboard-response",19,50539,"0.0-3.2-2.2","mwcqrrcczvjsbnx",130,"20.csv","","null","resources/images/coin2.png","null","",NA,NA,NA,NA,""
"image-keyboard-response",20,51597,"0.0-3.3-0.3","mwcqrrcczvjsbnx",130,"20.csv","","1056.4000000059605","resources/trios/L1T2A3.jpg","38","restless",0.6,0.3,0.9,0.0181453244107128,"true"
"image-keyboard-response",21,52003,"0.0-3.3-1.3","mwcqrrcczvjsbnx",130,"20.csv","","null","resources/maskTrios/BT2B.jpg","null","",NA,NA,NA,NA,""
"image-keyboard-response",22,53211,"0.0-3.3-2.3","mwcqrrcczvjsbnx",130,"20.csv","","null","resources/images/coin2.png","null","",NA,NA,NA,NA,""
"image-keyboard-response",23,54497,"0.0-3.4-0.4","mwcqrrcczvjsbnx",130,"20.csv","","1284.0999999940395","resources/trios/L2T1A3.jpg","39","restless",0.6,0.3,0.9,0.700341395371535,"true"
"image-keyboard-response",24,54902,"0.0-3.4-1.4","mwcqrrcczvjsbnx",130,"20.csv","","null","resources/maskTrios/BBA3.jpg","null","",NA,NA,NA,NA,""
"image-keyboard-response",25,56107,"0.0-3.4-2.4","mwcqrrcczvjsbnx",130,"20.csv","","null","resources/images/coin2.png","null","",NA,NA,NA,NA,""
"image-keyboard-response",26,56928,"0.0-3.5-0.5","mwcqrrcczvjsbnx",130,"20.csv","","818.5999999940395","resources/trios/L1T1A3.jpg","39","restless",0.6,0.3,0.8,0.893226156973923,"false"
"image-keyboard-response",27,57333,"0.0-3.5-1.5","mwcqrrcczvjsbnx",130,"20.csv","","null","resources/maskTrios/BBA3.jpg","null","",NA,NA,NA,NA,""
"image-keyboard-response",28,58535,"0.0-3.5-2.5","mwcqrrcczvjsbnx",130,"20.csv","","null","resources/images/fishbone.png","null","",NA,NA,NA,NA,""
"image-keyboard-response",29,58904,"0.0-3.6-0.6","mwcqrrcczvjsbnx",130,"20.csv","","366.5","resources/trios/L1T1A2.jpg","38","restless",0.6,0.3,0.8,0.383966910149675,"false"
"image-keyboard-response",30,59310,"0.0-3.6-1.6","mwcqrrcczvjsbnx",130,"20.csv","","null","resources/maskTrios/BT1B.jpg","null","",NA,NA,NA,NA,""
"image-keyboard-response",31,60517,"0.0-3.6-2.6","mwcqrrcczvjsbnx",130,"20.csv","","null","resources/images/fishbone.png","null","",NA,NA,NA,NA,""
"image-keyboard-response",32,60898,"0.0-3.7-0.7","mwcqrrcczvjsbnx",130,"20.csv","","378.80000001192093","resources/trios/L2T2A3.jpg","38","restless",0.6,0.3,0.8,0.7633179623207,"false"
"image-keyboard-response",33,61304,"0.0-3.7-1.7","mwcqrrcczvjsbnx",130,"20.csv","","null","resources/maskTrios/BT2B.jpg","null","",NA,NA,NA,NA,""
"image-keyboard-response",34,62511,"0.0-3.7-2.7","mwcqrrcczvjsbnx",130,"20.csv","","null","resources/images/fishbone.png","null","",NA,NA,NA,NA,""
"image-keyboard-response",35,62869,"0.0-3.8-0.8","mwcqrrcczvjsbnx",130,"20.csv","","354.7999999821186","resources/trios/L2T2A2.jpg","39","restless",0.5,0.3,0.8,0.304749623900377,"true"
"image-keyboard-response",36,63273,"0.0-3.8-1.8","mwcqrrcczvjsbnx",130,"20.csv","","null","resources/maskTrios/BBA2.jpg","null","",NA,NA,NA,NA,""
"image-keyboard-response",37,64479,"0.0-3.8-2.8","mwcqrrcczvjsbnx",130,"20.csv","","null","resources/images/coin2.png","null","",NA,NA,NA,NA,""
"image-keyboard-response",38,66199,"0.0-3.9-0.9","mwcqrrcczvjsbnx",130,"20.csv","","1717.7000000178814","resources/trios/L2T2A2.jpg","37","restless",0.5,0.4,0.8,0.903855209421952,"false"
"image-keyboard-response",39,66606,"0.0-3.9-1.9","mwcqrrcczvjsbnx",130,"20.csv","","null","resources/maskTrios/L2BB.jpg","null","",NA,NA,NA,NA,""
"image-keyboard-response",40,67813,"0.0-3.9-2.9","mwcqrrcczvjsbnx",130,"20.csv","","null","resources/images/fishbone.png","null","",NA,NA,NA,NA,""
"image-keyboard-response",41,69039,"0.0-3.10-0.10","mwcqrrcczvjsbnx",130,"20.csv","","1223.199999988079","resources/trios/L1T2A2.jpg","38","restless",0.4,0.4,0.8,0.722695161928285,"false"
"image-keyboard-response",42,69445,"0.0-3.10-1.10","mwcqrrcczvjsbnx",130,"20.csv","","null","resources/maskTrios/BT2B.jpg","null","",NA,NA,NA,NA,""
"image-keyboard-response",43,70652,"0.0-3.10-2.10","mwcqrrcczvjsbnx",130,"20.csv","","null","resources/images/fishbone.png","null","",NA,NA,NA,NA,""
"image-keyboard-response",44,71230,"0.0-3.11-0.11","mwcqrrcczvjsbnx",130,"20.csv","","575.6999999880791","resources/trios/L1T2A2.jpg","38","restless",0.4,0.4,0.8,0.352432822327134,"true"
"image-keyboard-response",45,71633,"0.0-3.11-1.11","mwcqrrcczvjsbnx",130,"20.csv","","null","resources/maskTrios/BT2B.jpg","null","",NA,NA,NA,NA,""
"image-keyboard-response",46,72837,"0.0-3.11-2.11","mwcqrrcczvjsbnx",130,"20.csv","","null","resources/images/coin2.png","null","",NA,NA,NA,NA,""
"image-keyboard-response",47,73367,"0.0-3.12-0.12","mwcqrrcczvjsbnx",130,"20.csv","","527.4000000059605","resources/trios/L2T2A2.jpg","38","restless",0.3,0.3,0.7,0.56018823053308,"false"
"image-keyboard-response",48,73770,"0.0-3.12-1.12","mwcqrrcczvjsbnx",130,"20.csv","","null","resources/maskTrios/BT2B.jpg","null","",NA,NA,NA,NA,""
"image-keyboard-response",49,74976,"0.0-3.12-2.12","mwcqrrcczvjsbnx",130,"20.csv","","null","resources/images/fishbone.png","null","",NA,NA,NA,NA,""
"image-keyboard-response",50,75459,"0.0-3.13-0.13","mwcqrrcczvjsbnx",130,"20.csv","","480.2999999821186","resources/trios/L2T2A2.jpg","38","restless",0.2,0.3,0.7,0.640835827935661,"false"
"image-keyboard-response",51,75861,"0.0-3.13-1.13","mwcqrrcczvjsbnx",130,"20.csv","","null","resources/maskTrios/BT2B.jpg","null","",NA,NA,NA,NA,""
"image-keyboard-response",52,77068,"0.0-3.13-2.13","mwcqrrcczvjsbnx",130,"20.csv","","null","resources/images/fishbone.png","null","",NA,NA,NA,NA,""
"image-keyboard-response",53,77618,"0.0-3.14-0.14","mwcqrrcczvjsbnx",130,"20.csv","","547.6999999880791","resources/trios/L1T1A3.jpg","38","restless",0.2,0.3,0.7,0.357793176604028,"false"
"image-keyboard-response",54,78025,"0.0-3.14-1.14","mwcqrrcczvjsbnx",130,"20.csv","","null","resources/maskTrios/BT1B.jpg","null","",NA,NA,NA,NA,""
"image-keyboard-response",55,79232,"0.0-3.14-2.14","mwcqrrcczvjsbnx",130,"20.csv","","null","resources/images/fishbone.png","null","",NA,NA,NA,NA,""
"image-keyboard-response",56,80232,"0.0-3.15-0.15","mwcqrrcczvjsbnx",130,"20.csv","","998.2999999821186","resources/trios/L1T1A2.jpg","38","restless",0.2,0.4,0.7,0.547663891991581,"false"
"image-keyboard-response",57,80638,"0.0-3.15-1.15","mwcqrrcczvjsbnx",130,"20.csv","","null","resources/maskTrios/BT1B.jpg","null","",NA,NA,NA,NA,""
"image-keyboard-response",58,81840,"0.0-3.15-2.15","mwcqrrcczvjsbnx",130,"20.csv","","null","resources/images/fishbone.png","null","",NA,NA,NA,NA,""
"image-keyboard-response",59,82672,"0.0-3.16-0.16","mwcqrrcczvjsbnx",130,"20.csv","","829.3999999761581","resources/trios/L1T1A2.jpg","37","restless",0.2,0.4,0.7,0.610079814370765,"false"
"image-keyboard-response",60,83079,"0.0-3.16-1.16","mwcqrrcczvjsbnx",130,"20.csv","","null","resources/maskTrios/L1BB.jpg","null","",NA,NA,NA,NA,""
"image-keyboard-response",61,84286,"0.0-3.16-2.16","mwcqrrcczvjsbnx",130,"20.csv","","null","resources/images/fishbone.png","null","",NA,NA,NA,NA,""
"image-keyboard-response",62,84916,"0.0-3.17-0.17","mwcqrrcczvjsbnx",130,"20.csv","","627.6000000238419","resources/trios/L2T2A2.jpg","37","restless",0.2,0.4,0.7,0.29285447887865,"false"
"image-keyboard-response",63,85323,"0.0-3.17-1.17","mwcqrrcczvjsbnx",130,"20.csv","","null","resources/maskTrios/L2BB.jpg","null","",NA,NA,NA,NA,""
"image-keyboard-response",64,86530,"0.0-3.17-2.17","mwcqrrcczvjsbnx",130,"20.csv","","null","resources/images/fishbone.png","null","",NA,NA,NA,NA,""
"image-keyboard-response",65,87637,"0.0-3.18-0.18","mwcqrrcczvjsbnx",130,"20.csv","","1105.4000000059605","resources/trios/L2T2A3.jpg","37","restless",0.2,0.4,0.7,0.98857691452393,"false"
"image-keyboard-response",66,88041,"0.0-3.18-1.18","mwcqrrcczvjsbnx",130,"20.csv","","null","resources/maskTrios/L2BB.jpg","null","",NA,NA,NA,NA,""
"image-keyboard-response",67,89243,"0.0-3.18-2.18","mwcqrrcczvjsbnx",130,"20.csv","","null","resources/images/fishbone.png","null","",NA,NA,NA,NA,""
"image-keyboard-response",68,89608,"0.0-3.19-0.19","mwcqrrcczvjsbnx",130,"20.csv","","362.59999999403954","resources/trios/L2T2A3.jpg","39","restless",0.1,0.4,0.8,0.192305604218287,"true"
"image-keyboard-response",69,90012,"0.0-3.19-1.19","mwcqrrcczvjsbnx",130,"20.csv","","null","resources/maskTrios/BBA3.jpg","null","",NA,NA,NA,NA,""
"image-keyboard-response",70,91219,"0.0-3.19-2.19","mwcqrrcczvjsbnx",130,"20.csv","","null","resources/images/coin2.png","null","",NA,NA,NA,NA,""
"image-keyboard-response",71,91907,"0.0-3.20-0.20","mwcqrrcczvjsbnx",130,"20.csv","","686.1999999880791","resources/trios/L1T2A2.jpg","38","restless",0.1,0.4,0.8,0.41245446787139,"false"
"image-keyboard-response",72,92310,"0.0-3.20-1.20","mwcqrrcczvjsbnx",130,"20.csv","","null","resources/maskTrios/BT2B.jpg","null","",NA,NA,NA,NA,""
"image-keyboard-response",73,93517,"0.0-3.20-2.20","mwcqrrcczvjsbnx",130,"20.csv","","null","resources/images/fishbone.png","null","",NA,NA,NA,NA,""
"image-keyboard-response",74,94170,"0.0-3.21-0.21","mwcqrrcczvjsbnx",130,"20.csv","","651.1999999880791","resources/trios/L2T1A2.jpg","39","restless",0.1,0.4,0.8,0.696219949656887,"true"
"image-keyboard-response",75,94577,"0.0-3.21-1.21","mwcqrrcczvjsbnx",130,"20.csv","","null","resources/maskTrios/BBA2.jpg","null","",NA,NA,NA,NA,""
"image-keyboard-response",76,95785,"0.0-3.21-2.21","mwcqrrcczvjsbnx",130,"20.csv","","null","resources/images/coin2.png","null","",NA,NA,NA,NA,""
"image-keyboard-response",77,96560,"0.0-3.22-0.22","mwcqrrcczvjsbnx",130,"20.csv","","772.7999999821186","resources/trios/L2T2A3.jpg","39","restless",0.1,0.4,0.8,0.223733906683167,"true"
"image-keyboard-response",78,96965,"0.0-3.22-1.22","mwcqrrcczvjsbnx",130,"20.csv","","null","resources/maskTrios/BBA3.jpg","null","",NA,NA,NA,NA,""
"image-keyboard-response",79,98172,"0.0-3.22-2.22","mwcqrrcczvjsbnx",130,"20.csv","","null","resources/images/coin2.png","null","",NA,NA,NA,NA,""
"image-keyboard-response",80,99005,"0.0-3.23-0.23","mwcqrrcczvjsbnx",130,"20.csv","","830.4000000059605","resources/trios/L1T2A3.jpg","39","restless",0.1,0.4,0.8,0.150687469220686,"true"
"image-keyboard-response",81,99412,"0.0-3.23-1.23","mwcqrrcczvjsbnx",130,"20.csv","","null","resources/maskTrios/BBA3.jpg","null","",NA,NA,NA,NA,""
"image-keyboard-response",82,100619,"0.0-3.23-2.23","mwcqrrcczvjsbnx",130,"20.csv","","null","resources/images/coin2.png","null","",NA,NA,NA,NA,""
"image-keyboard-response",83,101077,"0.0-3.24-0.24","mwcqrrcczvjsbnx",130,"20.csv","","456.5","resources/trios/L2T2A3.jpg","39","restless",0.1,0.5,0.8,0.287187691880407,"true"
"image-keyboard-response",84,101484,"0.0-3.24-1.24","mwcqrrcczvjsbnx",130,"20.csv","","null","resources/maskTrios/BBA3.jpg","null","",NA,NA,NA,NA,""
"image-keyboard-response",85,102691,"0.0-3.24-2.24","mwcqrrcczvjsbnx",130,"20.csv","","null","resources/images/coin2.png","null","",NA,NA,NA,NA,""
"image-keyboard-response",86,103080,"0.0-3.25-0.25","mwcqrrcczvjsbnx",130,"20.csv","","387.59999999403954","resources/trios/L1T2A2.jpg","39","restless",0.1,0.5,0.8,0.0197129729039682,"true"
"image-keyboard-response",87,103487,"0.0-3.25-1.25","mwcqrrcczvjsbnx",130,"20.csv","","null","resources/maskTrios/BBA2.jpg","null","",NA,NA,NA,NA,""
"image-keyboard-response",88,104695,"0.0-3.25-2.25","mwcqrrcczvjsbnx",130,"20.csv","","null","resources/images/coin2.png","null","",NA,NA,NA,NA,""
"image-keyboard-response",89,104984,"0.0-3.26-0.26","mwcqrrcczvjsbnx",130,"20.csv","","287.59999999403954","resources/trios/L2T1A2.jpg","39","restless",0.1,0.5,0.8,0.982071042071516,"false"
"image-keyboard-response",90,105391,"0.0-3.26-1.26","mwcqrrcczvjsbnx",130,"20.csv","","null","resources/maskTrios/BBA2.jpg","null","",NA,NA,NA,NA,""
"image-keyboard-response",91,106597,"0.0-3.26-2.26","mwcqrrcczvjsbnx",130,"20.csv","","null","resources/images/fishbone.png","null","",NA,NA,NA,NA,""
"image-keyboard-response",92,107326,"0.0-3.27-0.27","mwcqrrcczvjsbnx",130,"20.csv","","726.9000000059605","resources/trios/L1T2A2.jpg","38","restless",0.1,0.5,0.8,0.505637797135697,"false"
"image-keyboard-response",93,107732,"0.0-3.27-1.27","mwcqrrcczvjsbnx",130,"20.csv","","null","resources/maskTrios/BT2B.jpg","null","",NA,NA,NA,NA,""
"image-keyboard-response",94,108939,"0.0-3.27-2.27","mwcqrrcczvjsbnx",130,"20.csv","","null","resources/images/fishbone.png","null","",NA,NA,NA,NA,""
"image-keyboard-response",95,110402,"0.0-3.28-0.28","mwcqrrcczvjsbnx",130,"20.csv","","1461.199999988079","resources/trios/L2T1A2.jpg","37","restless",0.1,0.5,0.8,0.708332160859153,"false"
"image-keyboard-response",96,110809,"0.0-3.28-1.28","mwcqrrcczvjsbnx",130,"20.csv","","null","resources/maskTrios/L2BB.jpg","null","",NA,NA,NA,NA,""
"image-keyboard-response",97,112012,"0.0-3.28-2.28","mwcqrrcczvjsbnx",130,"20.csv","","null","resources/images/fishbone.png","null","",NA,NA,NA,NA,""
"image-keyboard-response",98,112289,"0.0-3.29-0.29","mwcqrrcczvjsbnx",130,"20.csv","","275","resources/trios/L1T1A3.jpg","39","restless",0.1,0.5,0.8,0.0584438986113676,"true"
"image-keyboard-response",99,112696,"0.0-3.29-1.29","mwcqrrcczvjsbnx",130,"20.csv","","null","resources/maskTrios/BBA3.jpg","null","",NA,NA,NA,NA,""
"image-keyboard-response",100,113903,"0.0-3.29-2.29","mwcqrrcczvjsbnx",130,"20.csv","","null","resources/images/coin2.png","null","",NA,NA,NA,NA,""
"image-keyboard-response",101,114277,"0.0-3.30-0.30","mwcqrrcczvjsbnx",130,"20.csv","","372.09999999403954","resources/trios/L2T2A3.jpg","39","restless",0.1,0.5,0.7,0.484040249408779,"true"
"image-keyboard-response",102,114683,"0.0-3.30-1.30","mwcqrrcczvjsbnx",130,"20.csv","","null","resources/maskTrios/BBA3.jpg","null","",NA,NA,NA,NA,""
"image-keyboard-response",103,115891,"0.0-3.30-2.30","mwcqrrcczvjsbnx",130,"20.csv","","null","resources/images/coin2.png","null","",NA,NA,NA,NA,""
"image-keyboard-response",104,116298,"0.0-3.31-0.31","mwcqrrcczvjsbnx",130,"20.csv","","405.40000000596046","resources/trios/L1T2A2.jpg","39","restless",0.1,0.5,0.7,0.833377430353279,"false"
"image-keyboard-response",105,116705,"0.0-3.31-1.31","mwcqrrcczvjsbnx",130,"20.csv","","null","resources/maskTrios/BBA2.jpg","null","",NA,NA,NA,NA,""
"image-keyboard-response",106,117912,"0.0-3.31-2.31","mwcqrrcczvjsbnx",130,"20.csv","","null","resources/images/fishbone.png","null","",NA,NA,NA,NA,""
"image-keyboard-response",107,118439,"0.0-3.32-0.32","mwcqrrcczvjsbnx",130,"20.csv","","524.6000000238419","resources/trios/L2T1A3.jpg","38","restless",0.1,0.5,0.7,0.937464225393555,"false"
"image-keyboard-response",108,118841,"0.0-3.32-1.32","mwcqrrcczvjsbnx",130,"20.csv","","null","resources/maskTrios/BT1B.jpg","null","",NA,NA,NA,NA,""
"image-keyboard-response",109,120048,"0.0-3.32-2.32","mwcqrrcczvjsbnx",130,"20.csv","","null","resources/images/fishbone.png","null","",NA,NA,NA,NA,""
"image-keyboard-response",110,120592,"0.0-3.33-0.33","mwcqrrcczvjsbnx",130,"20.csv","","542.3000000119209","resources/trios/L2T2A2.jpg","39","restless",0.2,0.5,0.7,0.36284256893317,"true"
"image-keyboard-response",111,120999,"0.0-3.33-1.33","mwcqrrcczvjsbnx",130,"20.csv","","null","resources/maskTrios/BBA2.jpg","null","",NA,NA,NA,NA,""
"image-keyboard-response",112,122206,"0.0-3.33-2.33","mwcqrrcczvjsbnx",130,"20.csv","","null","resources/images/coin2.png","null","",NA,NA,NA,NA,""
"image-keyboard-response",113,122620,"0.0-3.34-0.34","mwcqrrcczvjsbnx",130,"20.csv","","410.89999997615814","resources/trios/L1T2A2.jpg","38","restless",0.2,0.5,0.7,0.792946295502177,"false"
"image-keyboard-response",114,123027,"0.0-3.34-1.34","mwcqrrcczvjsbnx",130,"20.csv","","null","resources/maskTrios/BT2B.jpg","null","",NA,NA,NA,NA,""
"image-keyboard-response",115,124232,"0.0-3.34-2.34","mwcqrrcczvjsbnx",130,"20.csv","","null","resources/images/fishbone.png","null","",NA,NA,NA,NA,""
"image-keyboard-response",116,124489,"0.0-3.35-0.35","mwcqrrcczvjsbnx",130,"20.csv","","255.80000001192093","resources/trios/L2T1A2.jpg","39","restless",0.2,0.5,0.7,0.0574141976829097,"true"
"image-keyboard-response",117,124891,"0.0-3.35-1.35","mwcqrrcczvjsbnx",130,"20.csv","","null","resources/maskTrios/BBA2.jpg","null","",NA,NA,NA,NA,""
"image-keyboard-response",118,126098,"0.0-3.35-2.35","mwcqrrcczvjsbnx",130,"20.csv","","null","resources/images/coin2.png","null","",NA,NA,NA,NA,""
"image-keyboard-response",119,126402,"0.0-3.36-0.36","mwcqrrcczvjsbnx",130,"20.csv","","302","resources/trios/L1T1A2.jpg","39","restless",0.2,0.5,0.7,0.990221328287659,"false"
"image-keyboard-response",120,126809,"0.0-3.36-1.36","mwcqrrcczvjsbnx",130,"20.csv","","null","resources/maskTrios/BBA2.jpg","null","",NA,NA,NA,NA,""
"image-keyboard-response",121,128016,"0.0-3.36-2.36","mwcqrrcczvjsbnx",130,"20.csv","","null","resources/images/fishbone.png","null","",NA,NA,NA,NA,""
"image-keyboard-response",122,128474,"0.0-3.37-0.37","mwcqrrcczvjsbnx",130,"20.csv","","456.30000001192093","resources/trios/L2T1A2.jpg","38","restless",0.2,0.5,0.7,0.909627675116421,"false"
"image-keyboard-response",123,128877,"0.0-3.37-1.37","mwcqrrcczvjsbnx",130,"20.csv","","null","resources/maskTrios/BT1B.jpg","null","",NA,NA,NA,NA,""
"image-keyboard-response",124,130079,"0.0-3.37-2.37","mwcqrrcczvjsbnx",130,"20.csv","","null","resources/images/fishbone.png","null","",NA,NA,NA,NA,""
"image-keyboard-response",125,130344,"0.0-3.38-0.38","mwcqrrcczvjsbnx",130,"20.csv","","262.89999997615814","resources/trios/L2T2A2.jpg","39","restless",0.3,0.5,0.7,0.227000639748834,"true"
"image-keyboard-response",126,130752,"0.0-3.38-1.38","mwcqrrcczvjsbnx",130,"20.csv","","null","resources/maskTrios/BBA2.jpg","null","",NA,NA,NA,NA,""
"image-keyboard-response",127,131959,"0.0-3.38-2.38","mwcqrrcczvjsbnx",130,"20.csv","","null","resources/images/coin2.png","null","",NA,NA,NA,NA,""
"image-keyboard-response",128,132311,"0.0-3.39-0.39","mwcqrrcczvjsbnx",130,"20.csv","","350.40000000596046","resources/trios/L1T2A3.jpg","38","restless",0.4,0.5,0.7,0.175871970908813,"true"
"image-keyboard-response",129,132718,"0.0-3.39-1.39","mwcqrrcczvjsbnx",130,"20.csv","","null","resources/maskTrios/BT2B.jpg","null","",NA,NA,NA,NA,""
"image-keyboard-response",130,133927,"0.0-3.39-2.39","mwcqrrcczvjsbnx",130,"20.csv","","null","resources/images/coin2.png","null","",NA,NA,NA,NA,""
"image-keyboard-response",131,134508,"0.0-3.40-0.40","mwcqrrcczvjsbnx",130,"20.csv","","579.0999999940395","resources/trios/L1T2A2.jpg","39","restless",0.4,0.5,0.7,0.409546659637,"true"
"image-keyboard-response",132,134911,"0.0-3.40-1.40","mwcqrrcczvjsbnx",130,"20.csv","","null","resources/maskTrios/BBA2.jpg","null","",NA,NA,NA,NA,""
"image-keyboard-response",133,136118,"0.0-3.40-2.40","mwcqrrcczvjsbnx",130,"20.csv","","null","resources/images/coin2.png","null","",NA,NA,NA,NA,""
"image-keyboard-response",134,136808,"0.0-3.41-0.41","mwcqrrcczvjsbnx",130,"20.csv","","687.5","resources/trios/L2T2A3.jpg","39","restless",0.4,0.5,0.7,0.230669122883369,"true"
"image-keyboard-response",135,137215,"0.0-3.41-1.41","mwcqrrcczvjsbnx",130,"20.csv","","null","resources/maskTrios/BBA3.jpg","null","",NA,NA,NA,NA,""
"image-keyboard-response",136,138422,"0.0-3.41-2.41","mwcqrrcczvjsbnx",130,"20.csv","","null","resources/images/coin2.png","null","",NA,NA,NA,NA,""
"image-keyboard-response",137,138961,"0.0-3.42-0.42","mwcqrrcczvjsbnx",130,"20.csv","","536.5999999940395","resources/trios/L2T1A2.jpg","39","restless",0.4,0.5,0.7,0.107381559449426,"true"
"image-keyboard-response",138,139370,"0.0-3.42-1.42","mwcqrrcczvjsbnx",130,"20.csv","","null","resources/maskTrios/BBA2.jpg","null","",NA,NA,NA,NA,""
"image-keyboard-response",139,140577,"0.0-3.42-2.42","mwcqrrcczvjsbnx",130,"20.csv","","null","resources/images/coin2.png","null","",NA,NA,NA,NA,""
"image-keyboard-response",140,140892,"0.0-3.43-0.43","mwcqrrcczvjsbnx",130,"20.csv","","312.69999998807907","resources/trios/L2T1A2.jpg","39","restless",0.4,0.5,0.8,0.801683565419926,"false"
"image-keyboard-response",141,141299,"0.0-3.43-1.43","mwcqrrcczvjsbnx",130,"20.csv","","null","resources/maskTrios/BBA2.jpg","null","",NA,NA,NA,NA,""
"image-keyboard-response",142,142502,"0.0-3.43-2.43","mwcqrrcczvjsbnx",130,"20.csv","","null","resources/images/fishbone.png","null","",NA,NA,NA,NA,""
"image-keyboard-response",143,142743,"0.0-3.44-0.44","mwcqrrcczvjsbnx",130,"20.csv","","239.09999999403954","resources/trios/L1T2A2.jpg","38","restless",0.4,0.5,0.8,0.54999548094027,"false"
"image-keyboard-response",144,143150,"0.0-3.44-1.44","mwcqrrcczvjsbnx",130,"20.csv","","null","resources/maskTrios/BT2B.jpg","null","",NA,NA,NA,NA,""
"image-keyboard-response",145,144357,"0.0-3.44-2.44","mwcqrrcczvjsbnx",130,"20.csv","","null","resources/images/fishbone.png","null","",NA,NA,NA,NA,""
"image-keyboard-response",146,144367,"0.0-3.45-0.45","mwcqrrcczvjsbnx",130,"20.csv","","7.5999999940395355","resources/trios/L2T1A3.jpg","39","restless",0.5,0.6,0.8,0.592408154342454,"true"
"image-keyboard-response",147,144769,"0.0-3.45-1.45","mwcqrrcczvjsbnx",130,"20.csv","","null","resources/maskTrios/BBA3.jpg","null","",NA,NA,NA,NA,""
"image-keyboard-response",148,145972,"0.0-3.45-2.45","mwcqrrcczvjsbnx",130,"20.csv","","null","resources/images/coin2.png","null","",NA,NA,NA,NA,""
"image-keyboard-response",149,146282,"0.0-3.46-0.46","mwcqrrcczvjsbnx",130,"20.csv","","307.80000001192093","resources/trios/L2T1A2.jpg","39","restless",0.5,0.6,0.8,0.420791985842693,"true"
"image-keyboard-response",150,146689,"0.0-3.46-1.46","mwcqrrcczvjsbnx",130,"20.csv","","null","resources/maskTrios/BBA2.jpg","null","",NA,NA,NA,NA,""
"image-keyboard-response",151,147894,"0.0-3.46-2.46","mwcqrrcczvjsbnx",130,"20.csv","","null","resources/images/coin2.png","null","",NA,NA,NA,NA,""
"image-keyboard-response",152,148167,"0.0-3.47-0.47","mwcqrrcczvjsbnx",130,"20.csv","","270.90000000596046","resources/trios/L1T2A3.jpg","39","restless",0.5,0.6,0.8,0.6396039546574,"true"
"image-keyboard-response",153,148572,"0.0-3.47-1.47","mwcqrrcczvjsbnx",130,"20.csv","","null","resources/maskTrios/BBA3.jpg","null","",NA,NA,NA,NA,""
"image-keyboard-response",154,149779,"0.0-3.47-2.47","mwcqrrcczvjsbnx",130,"20.csv","","null","resources/images/coin2.png","null","",NA,NA,NA,NA,""
"image-keyboard-response",155,150030,"0.0-3.48-0.48","mwcqrrcczvjsbnx",130,"20.csv","","248.80000001192093","resources/trios/L1T1A2.jpg","39","restless",0.6,0.6,0.8,0.00399849532523877,"true"
"image-keyboard-response",156,150437,"0.0-3.48-1.48","mwcqrrcczvjsbnx",130,"20.csv","","null","resources/maskTrios/BBA2.jpg","null","",NA,NA,NA,NA,""
"image-keyboard-response",157,151643,"0.0-3.48-2.48","mwcqrrcczvjsbnx",130,"20.csv","","null","resources/images/coin2.png","null","",NA,NA,NA,NA,""
"image-keyboard-response",158,151692,"0.0-3.49-0.49","mwcqrrcczvjsbnx",130,"20.csv","","46.60000002384186","resources/trios/L1T1A2.jpg","39","restless",0.5,0.6,0.8,0.355724711937096,"true"
"image-keyboard-response",159,152099,"0.0-3.49-1.49","mwcqrrcczvjsbnx",130,"20.csv","","null","resources/maskTrios/BBA2.jpg","null","",NA,NA,NA,NA,""
"image-keyboard-response",160,153303,"0.0-3.49-2.49","mwcqrrcczvjsbnx",130,"20.csv","","null","resources/images/coin2.png","null","",NA,NA,NA,NA,""
"image-keyboard-response",161,153679,"0.0-3.50-0.50","mwcqrrcczvjsbnx",130,"20.csv","","373.7000000178814","resources/trios/L1T2A3.jpg","38","restless",0.5,0.6,0.8,0.964775763295662,"false"
"image-keyboard-response",162,154084,"0.0-3.50-1.50","mwcqrrcczvjsbnx",130,"20.csv","","null","resources/maskTrios/BT2B.jpg","null","",NA,NA,NA,NA,""
"image-keyboard-response",163,155286,"0.0-3.50-2.50","mwcqrrcczvjsbnx",130,"20.csv","","null","resources/images/fishbone.png","null","",NA,NA,NA,NA,""
"image-keyboard-response",164,156347,"0.0-3.51-0.51","mwcqrrcczvjsbnx",130,"20.csv","","1058.7999999821186","resources/trios/L1T1A2.jpg","39","restless",0.5,0.6,0.8,0.0932894491337197,"true"
"image-keyboard-response",165,156750,"0.0-3.51-1.51","mwcqrrcczvjsbnx",130,"20.csv","","null","resources/maskTrios/BBA2.jpg","null","",NA,NA,NA,NA,""
"image-keyboard-response",166,157957,"0.0-3.51-2.51","mwcqrrcczvjsbnx",130,"20.csv","","null","resources/images/coin2.png","null","",NA,NA,NA,NA,""
"image-keyboard-response",167,158902,"0.0-3.52-0.52","mwcqrrcczvjsbnx",130,"20.csv","","942.9000000059605","resources/trios/L1T1A2.jpg","37","restless",0.5,0.6,0.8,0.325459979206876,"true"
"image-keyboard-response",168,159305,"0.0-3.52-1.52","mwcqrrcczvjsbnx",130,"20.csv","","null","resources/maskTrios/L1BB.jpg","null","",NA,NA,NA,NA,""
"image-keyboard-response",169,160512,"0.0-3.52-2.52","mwcqrrcczvjsbnx",130,"20.csv","","null","resources/images/coin2.png","null","",NA,NA,NA,NA,""
"image-keyboard-response",170,161178,"0.0-3.53-0.53","mwcqrrcczvjsbnx",130,"20.csv","","663.6999999880791","resources/trios/L1T1A3.jpg","39","restless",0.5,0.7,0.8,0.111292610631623,"true"
"image-keyboard-response",171,161582,"0.0-3.53-1.53","mwcqrrcczvjsbnx",130,"20.csv","","null","resources/maskTrios/BBA3.jpg","null","",NA,NA,NA,NA,""
"image-keyboard-response",172,162790,"0.0-3.53-2.53","mwcqrrcczvjsbnx",130,"20.csv","","null","resources/images/coin2.png","null","",NA,NA,NA,NA,""
"image-keyboard-response",173,163286,"0.0-3.54-0.54","mwcqrrcczvjsbnx",130,"20.csv","","494.30000001192093","resources/trios/L2T2A2.jpg","39","restless",0.5,0.7,0.8,0.906856334299853,"false"
"image-keyboard-response",174,163689,"0.0-3.54-1.54","mwcqrrcczvjsbnx",130,"20.csv","","null","resources/maskTrios/BBA2.jpg","null","",NA,NA,NA,NA,""
"image-keyboard-response",175,164895,"0.0-3.54-2.54","mwcqrrcczvjsbnx",130,"20.csv","","null","resources/images/fishbone.png","null","",NA,NA,NA,NA,""
"image-keyboard-response",176,165191,"0.0-3.55-0.55","mwcqrrcczvjsbnx",130,"20.csv","","292.80000001192093","resources/trios/L1T1A2.jpg","37","restless",0.5,0.7,0.8,0.481719369332203,"true"
"image-keyboard-response",177,165598,"0.0-3.55-1.55","mwcqrrcczvjsbnx",130,"20.csv","","null","resources/maskTrios/L1BB.jpg","null","",NA,NA,NA,NA,""
"image-keyboard-response",178,166805,"0.0-3.55-2.55","mwcqrrcczvjsbnx",130,"20.csv","","null","resources/images/coin2.png","null","",NA,NA,NA,NA,""
"image-keyboard-response",179,167263,"0.0-3.56-0.56","mwcqrrcczvjsbnx",130,"20.csv","","456.09999999403954","resources/trios/L1T2A2.jpg","39","restless",0.5,0.7,0.8,0.654354796389564,"true"
"image-keyboard-response",180,167671,"0.0-3.56-1.56","mwcqrrcczvjsbnx",130,"20.csv","","null","resources/maskTrios/BBA2.jpg","null","",NA,NA,NA,NA,""
"image-keyboard-response",181,168873,"0.0-3.56-2.56","mwcqrrcczvjsbnx",130,"20.csv","","null","resources/images/coin2.png","null","",NA,NA,NA,NA,""
"image-keyboard-response",182,169324,"0.0-3.57-0.57","mwcqrrcczvjsbnx",130,"20.csv","","448.7999999821186","resources/trios/L2T1A3.jpg","39","restless",0.5,0.7,0.8,0.157407200309518,"true"
"image-keyboard-response",183,169731,"0.0-3.57-1.57","mwcqrrcczvjsbnx",130,"20.csv","","null","resources/maskTrios/BBA3.jpg","null","",NA,NA,NA,NA,""
"image-keyboard-response",184,170936,"0.0-3.57-2.57","mwcqrrcczvjsbnx",130,"20.csv","","null","resources/images/coin2.png","null","",NA,NA,NA,NA,""
"image-keyboard-response",185,171260,"0.0-3.58-0.58","mwcqrrcczvjsbnx",130,"20.csv","","320.69999998807907","resources/trios/L1T1A3.jpg","37","restless",0.5,0.7,0.8,0.186885037334622,"true"
"image-keyboard-response",186,171667,"0.0-3.58-1.58","mwcqrrcczvjsbnx",130,"20.csv","","null","resources/maskTrios/L1BB.jpg","null","",NA,NA,NA,NA,""
"image-keyboard-response",187,172870,"0.0-3.58-2.58","mwcqrrcczvjsbnx",130,"20.csv","","null","resources/images/coin2.png","null","",NA,NA,NA,NA,""
"image-keyboard-response",188,173165,"0.0-3.59-0.59","mwcqrrcczvjsbnx",130,"20.csv","","293.09999999403954","resources/trios/L2T1A3.jpg","39","restless",0.5,0.7,0.8,0.83382704228882,"false"
"image-keyboard-response",189,173571,"0.0-3.59-1.59","mwcqrrcczvjsbnx",130,"20.csv","","null","resources/maskTrios/BBA3.jpg","null","",NA,NA,NA,NA,""
"image-keyboard-response",190,174777,"0.0-3.59-2.59","mwcqrrcczvjsbnx",130,"20.csv","","null","resources/images/fishbone.png","null","",NA,NA,NA,NA,""
"image-keyboard-response",191,175057,"0.0-3.60-0.60","mwcqrrcczvjsbnx",130,"20.csv","","278.10000002384186","resources/trios/L2T1A2.jpg","38","restless",0.5,0.7,0.8,0.583098614579482,"true"
"image-keyboard-response",192,175464,"0.0-3.60-1.60","mwcqrrcczvjsbnx",130,"20.csv","","null","resources/maskTrios/BT1B.jpg","null","",NA,NA,NA,NA,""
"image-keyboard-response",193,176671,"0.0-3.60-2.60","mwcqrrcczvjsbnx",130,"20.csv","","null","resources/images/coin2.png","null","",NA,NA,NA,NA,""
"image-keyboard-response",194,177305,"0.0-3.61-0.61","mwcqrrcczvjsbnx",130,"20.csv","","632.0999999940395","resources/trios/L1T1A3.jpg","37","restless",0.5,0.7,0.8,0.922271982769617,"false"
"image-keyboard-response",195,177710,"0.0-3.61-1.61","mwcqrrcczvjsbnx",130,"20.csv","","null","resources/maskTrios/L1BB.jpg","null","",NA,NA,NA,NA,""
"image-keyboard-response",196,178917,"0.0-3.61-2.61","mwcqrrcczvjsbnx",130,"20.csv","","null","resources/images/fishbone.png","null","",NA,NA,NA,NA,""
"image-keyboard-response",197,179256,"0.0-3.62-0.62","mwcqrrcczvjsbnx",130,"20.csv","","337.59999999403954","resources/trios/L1T2A3.jpg","39","restless",0.5,0.7,0.8,0.680095465809126,"true"
"image-keyboard-response",198,179663,"0.0-3.62-1.62","mwcqrrcczvjsbnx",130,"20.csv","","null","resources/maskTrios/BBA3.jpg","null","",NA,NA,NA,NA,""
"image-keyboard-response",199,180870,"0.0-3.62-2.62","mwcqrrcczvjsbnx",130,"20.csv","","null","resources/images/coin2.png","null","",NA,NA,NA,NA,""
"image-keyboard-response",200,181305,"0.0-3.63-0.63","mwcqrrcczvjsbnx",130,"20.csv","","432.90000000596046","resources/trios/L1T1A3.jpg","39","restless",0.5,0.7,0.8,0.0942590193997137,"true"
"image-keyboard-response",201,181712,"0.0-3.63-1.63","mwcqrrcczvjsbnx",130,"20.csv","","null","resources/maskTrios/BBA3.jpg","null","",NA,NA,NA,NA,""
"image-keyboard-response",202,182919,"0.0-3.63-2.63","mwcqrrcczvjsbnx",130,"20.csv","","null","resources/images/coin2.png","null","",NA,NA,NA,NA,""
"image-keyboard-response",203,183282,"0.0-3.64-0.64","mwcqrrcczvjsbnx",130,"20.csv","","360.89999997615814","resources/trios/L2T2A2.jpg","38","restless",0.5,0.7,0.8,0.222068136098492,"true"
"image-keyboard-response",204,183685,"0.0-3.64-1.64","mwcqrrcczvjsbnx",130,"20.csv","","null","resources/maskTrios/BT2B.jpg","null","",NA,NA,NA,NA,""
"image-keyboard-response",205,184892,"0.0-3.64-2.64","mwcqrrcczvjsbnx",130,"20.csv","","null","resources/images/coin2.png","null","",NA,NA,NA,NA,""
"image-keyboard-response",206,185157,"0.0-3.65-0.65","mwcqrrcczvjsbnx",130,"20.csv","","262.09999999403954","resources/trios/L1T2A2.jpg","38","restless",0.5,0.7,0.8,0.652016486030181,"true"
"image-keyboard-response",207,185561,"0.0-3.65-1.65","mwcqrrcczvjsbnx",130,"20.csv","","null","resources/maskTrios/BT2B.jpg","null","",NA,NA,NA,NA,""
"image-keyboard-response",208,186765,"0.0-3.65-2.65","mwcqrrcczvjsbnx",130,"20.csv","","null","resources/images/coin2.png","null","",NA,NA,NA,NA,""
"image-keyboard-response",209,186816,"0.0-3.66-0.66","mwcqrrcczvjsbnx",130,"20.csv","","48.69999998807907","resources/trios/L1T2A2.jpg","38","restless",0.5,0.7,0.8,0.400953768284344,"true"
"image-keyboard-response",210,187220,"0.0-3.66-1.66","mwcqrrcczvjsbnx",130,"20.csv","","null","resources/maskTrios/BT2B.jpg","null","",NA,NA,NA,NA,""
"image-keyboard-response",211,188427,"0.0-3.66-2.66","mwcqrrcczvjsbnx",130,"20.csv","","null","resources/images/coin2.png","null","",NA,NA,NA,NA,""
"image-keyboard-response",212,188738,"0.0-3.67-0.67","mwcqrrcczvjsbnx",130,"20.csv","","308.39999997615814","resources/trios/L1T1A3.jpg","39","restless",0.5,0.7,0.8,0.0233656327023115,"true"
"image-keyboard-response",213,189145,"0.0-3.67-1.67","mwcqrrcczvjsbnx",130,"20.csv","","null","resources/maskTrios/BBA3.jpg","null","",NA,NA,NA,NA,""
"image-keyboard-response",214,190349,"0.0-3.67-2.67","mwcqrrcczvjsbnx",130,"20.csv","","null","resources/images/coin2.png","null","",NA,NA,NA,NA,""
"image-keyboard-response",215,190778,"0.0-3.68-0.68","mwcqrrcczvjsbnx",130,"20.csv","","426.40000000596046","resources/trios/L1T1A3.jpg","38","restless",0.5,0.7,0.8,0.727528679785899,"false"
"image-keyboard-response",216,191182,"0.0-3.68-1.68","mwcqrrcczvjsbnx",130,"20.csv","","null","resources/maskTrios/BT1B.jpg","null","",NA,NA,NA,NA,""
"image-keyboard-response",217,192384,"0.0-3.68-2.68","mwcqrrcczvjsbnx",130,"20.csv","","null","resources/images/fishbone.png","null","",NA,NA,NA,NA,""
"image-keyboard-response",218,192715,"0.0-3.69-0.69","mwcqrrcczvjsbnx",130,"20.csv","","328.19999998807907","resources/trios/L1T2A2.jpg","39","restless",0.5,0.6,0.8,0.253691892751008,"true"
"image-keyboard-response",219,193122,"0.0-3.69-1.69","mwcqrrcczvjsbnx",130,"20.csv","","null","resources/maskTrios/BBA2.jpg","null","",NA,NA,NA,NA,""
"image-keyboard-response",220,194329,"0.0-3.69-2.69","mwcqrrcczvjsbnx",130,"20.csv","","null","resources/images/coin2.png","null","",NA,NA,NA,NA,""
"image-keyboard-response",221,195289,"0.0-3.70-0.70","mwcqrrcczvjsbnx",130,"20.csv","","957.5","resources/trios/L1T1A2.jpg","39","restless",0.5,0.6,0.7,0.574034061697786,"true"
"image-keyboard-response",222,195695,"0.0-3.70-1.70","mwcqrrcczvjsbnx",130,"20.csv","","null","resources/maskTrios/BBA2.jpg","null","",NA,NA,NA,NA,""
"image-keyboard-response",223,196902,"0.0-3.70-2.70","mwcqrrcczvjsbnx",130,"20.csv","","null","resources/images/coin2.png","null","",NA,NA,NA,NA,""
"image-keyboard-response",224,197538,"0.0-3.71-0.71","mwcqrrcczvjsbnx",130,"20.csv","","633.1999999880791","resources/trios/L2T2A2.jpg","39","restless",0.5,0.5,0.7,0.284682797773384,"true"
"image-keyboard-response",225,197945,"0.0-3.71-1.71","mwcqrrcczvjsbnx",130,"20.csv","","null","resources/maskTrios/BBA2.jpg","null","",NA,NA,NA,NA,""
"image-keyboard-response",226,199152,"0.0-3.71-2.71","mwcqrrcczvjsbnx",130,"20.csv","","null","resources/images/coin2.png","null","",NA,NA,NA,NA,""
"image-keyboard-response",227,199438,"0.0-3.72-0.72","mwcqrrcczvjsbnx",130,"20.csv","","284.09999999403954","resources/trios/L1T2A3.jpg","39","restless",0.5,0.5,0.7,0.703225363557311,"false"
"image-keyboard-response",228,199845,"0.0-3.72-1.72","mwcqrrcczvjsbnx",130,"20.csv","","null","resources/maskTrios/BBA3.jpg","null","",NA,NA,NA,NA,""
"image-keyboard-response",229,201048,"0.0-3.72-2.72","mwcqrrcczvjsbnx",130,"20.csv","","null","resources/images/fishbone.png","null","",NA,NA,NA,NA,""
"image-keyboard-response",230,201521,"0.0-3.73-0.73","mwcqrrcczvjsbnx",130,"20.csv","","470.19999998807907","resources/trios/L1T2A3.jpg","38","restless",0.5,0.5,0.7,0.936139735042214,"false"
"image-keyboard-response",231,201926,"0.0-3.73-1.73","mwcqrrcczvjsbnx",130,"20.csv","","null","resources/maskTrios/BT2B.jpg","null","",NA,NA,NA,NA,""
"image-keyboard-response",232,203130,"0.0-3.73-2.73","mwcqrrcczvjsbnx",130,"20.csv","","null","resources/images/fishbone.png","null","",NA,NA,NA,NA,""
"image-keyboard-response",233,203596,"0.0-3.74-0.74","mwcqrrcczvjsbnx",130,"20.csv","","465.2999999821186","resources/trios/L2T1A2.jpg","37","restless",0.5,0.5,0.7,0.811635350157784,"false"
"image-keyboard-response",234,204003,"0.0-3.74-1.74","mwcqrrcczvjsbnx",130,"20.csv","","null","resources/maskTrios/L2BB.jpg","null","",NA,NA,NA,NA,""
"image-keyboard-response",235,205210,"0.0-3.74-2.74","mwcqrrcczvjsbnx",130,"20.csv","","null","resources/images/fishbone.png","null","",NA,NA,NA,NA,""
"image-keyboard-response",236,205939,"0.0-3.75-0.75","mwcqrrcczvjsbnx",130,"20.csv","","727.2999999821186","resources/trios/L1T1A2.jpg","39","restless",0.5,0.5,0.7,0.840362839320005,"false"
"image-keyboard-response",237,206345,"0.0-3.75-1.75","mwcqrrcczvjsbnx",130,"20.csv","","null","resources/maskTrios/BBA2.jpg","null","",NA,NA,NA,NA,""
"image-keyboard-response",238,207547,"0.0-3.75-2.75","mwcqrrcczvjsbnx",130,"20.csv","","null","resources/images/fishbone.png","null","",NA,NA,NA,NA,""
"image-keyboard-response",239,207605,"0.0-3.76-0.76","mwcqrrcczvjsbnx",130,"20.csv","","55.5","resources/trios/L1T1A3.jpg","38","restless",0.5,0.5,0.7,0.379096140595529,"true"
"image-keyboard-response",240,208011,"0.0-3.76-1.76","mwcqrrcczvjsbnx",130,"20.csv","","null","resources/maskTrios/BT1B.jpg","null","",NA,NA,NA,NA,""
"image-keyboard-response",241,209219,"0.0-3.76-2.76","mwcqrrcczvjsbnx",130,"20.csv","","null","resources/images/coin2.png","null","",NA,NA,NA,NA,""
"image-keyboard-response",242,209740,"0.0-3.77-0.77","mwcqrrcczvjsbnx",130,"20.csv","","519.5999999940395","resources/trios/L2T2A3.jpg","39","restless",0.5,0.5,0.7,0.646845379962222,"true"
"image-keyboard-response",243,210148,"0.0-3.77-1.77","mwcqrrcczvjsbnx",130,"20.csv","","null","resources/maskTrios/BBA3.jpg","null","",NA,NA,NA,NA,""
"image-keyboard-response",244,211353,"0.0-3.77-2.77","mwcqrrcczvjsbnx",130,"20.csv","","null","resources/images/coin2.png","null","",NA,NA,NA,NA,""
"image-keyboard-response",245,211357,"0.0-3.78-0.78","mwcqrrcczvjsbnx",130,"20.csv","","2.5","resources/trios/L1T2A3.jpg","37","restless",0.5,0.5,0.7,0.447422602793279,"true"
"image-keyboard-response",246,211764,"0.0-3.78-1.78","mwcqrrcczvjsbnx",130,"20.csv","","null","resources/maskTrios/L1BB.jpg","null","",NA,NA,NA,NA,""
"image-keyboard-response",247,212971,"0.0-3.78-2.78","mwcqrrcczvjsbnx",130,"20.csv","","null","resources/images/coin2.png","null","",NA,NA,NA,NA,""
"image-keyboard-response",248,213195,"0.0-3.79-0.79","mwcqrrcczvjsbnx",130,"20.csv","","221.19999998807907","resources/trios/L1T1A2.jpg","39","restless",0.6,0.5,0.7,0.497543502330468,"true"
"image-keyboard-response",249,213602,"0.0-3.79-1.79","mwcqrrcczvjsbnx",130,"20.csv","","null","resources/maskTrios/BBA2.jpg","null","",NA,NA,NA,NA,""
"image-keyboard-response",250,214808,"0.0-3.79-2.79","mwcqrrcczvjsbnx",130,"20.csv","","null","resources/images/coin2.png","null","",NA,NA,NA,NA,""
"image-keyboard-response",251,214942,"0.0-3.80-0.80","mwcqrrcczvjsbnx",130,"20.csv","","131.40000000596046","resources/trios/L2T2A3.jpg","39","restless",0.6,0.5,0.7,0.685925641863132,"true"
"image-keyboard-response",252,215349,"0.0-3.80-1.80","mwcqrrcczvjsbnx",130,"20.csv","","null","resources/maskTrios/BBA3.jpg","null","",NA,NA,NA,NA,""
"image-keyboard-response",253,216553,"0.0-3.80-2.80","mwcqrrcczvjsbnx",130,"20.csv","","null","resources/images/coin2.png","null","",NA,NA,NA,NA,""
"image-keyboard-response",254,216674,"0.0-3.81-0.81","mwcqrrcczvjsbnx",130,"20.csv","","118.39999997615814","resources/trios/L1T1A3.jpg","37","restless",0.6,0.5,0.7,0.894219409040256,"false"
"image-keyboard-response",255,217081,"0.0-3.81-1.81","mwcqrrcczvjsbnx",130,"20.csv","","null","resources/maskTrios/L1BB.jpg","null","",NA,NA,NA,NA,""
"image-keyboard-response",256,218288,"0.0-3.81-2.81","mwcqrrcczvjsbnx",130,"20.csv","","null","resources/images/fishbone.png","null","",NA,NA,NA,NA,""
"image-keyboard-response",257,218537,"0.0-3.82-0.82","mwcqrrcczvjsbnx",130,"20.csv","","246.59999999403954","resources/trios/L2T1A3.jpg","38","restless",0.6,0.5,0.7,0.501990872991815,"false"
"image-keyboard-response",258,218939,"0.0-3.82-1.82","mwcqrrcczvjsbnx",130,"20.csv","","null","resources/maskTrios/BT1B.jpg","null","",NA,NA,NA,NA,""
"image-keyboard-response",259,220147,"0.0-3.82-2.82","mwcqrrcczvjsbnx",130,"20.csv","","null","resources/images/fishbone.png","null","",NA,NA,NA,NA,""
"image-keyboard-response",260,220393,"0.0-3.83-0.83","mwcqrrcczvjsbnx",130,"20.csv","","244.90000000596046","resources/trios/L1T1A2.jpg","39","restless",0.7,0.6,0.7,0.52783804313638,"true"
"image-keyboard-response",261,220796,"0.0-3.83-1.83","mwcqrrcczvjsbnx",130,"20.csv","","null","resources/maskTrios/BBA2.jpg","null","",NA,NA,NA,NA,""
"image-keyboard-response",262,222003,"0.0-3.83-2.83","mwcqrrcczvjsbnx",130,"20.csv","","null","resources/images/coin2.png","null","",NA,NA,NA,NA,""
"image-keyboard-response",263,222333,"0.0-3.84-0.84","mwcqrrcczvjsbnx",130,"20.csv","","327.90000000596046","resources/trios/L2T2A3.jpg","39","restless",0.7,0.6,0.7,0.469580789994101,"true"
"image-keyboard-response",264,222738,"0.0-3.84-1.84","mwcqrrcczvjsbnx",130,"20.csv","","null","resources/maskTrios/BBA3.jpg","null","",NA,NA,NA,NA,""
"image-keyboard-response",265,223944,"0.0-3.84-2.84","mwcqrrcczvjsbnx",130,"20.csv","","null","resources/images/coin2.png","null","",NA,NA,NA,NA,""
"image-keyboard-response",266,224177,"0.0-3.85-0.85","mwcqrrcczvjsbnx",130,"20.csv","","230.59999999403954","resources/trios/L2T2A3.jpg","39","restless",0.7,0.6,0.7,0.702107115260741,"false"
"image-keyboard-response",267,224584,"0.0-3.85-1.85","mwcqrrcczvjsbnx",130,"20.csv","","null","resources/maskTrios/BBA3.jpg","null","",NA,NA,NA,NA,""
"image-keyboard-response",268,225791,"0.0-3.85-2.85","mwcqrrcczvjsbnx",130,"20.csv","","null","resources/images/fishbone.png","null","",NA,NA,NA,NA,""
"image-keyboard-response",269,226110,"0.0-3.86-0.86","mwcqrrcczvjsbnx",130,"20.csv","","316.90000000596046","resources/trios/L2T1A2.jpg","39","restless",0.7,0.6,0.7,0.715540526338065,"false"
"image-keyboard-response",270,226514,"0.0-3.86-1.86","mwcqrrcczvjsbnx",130,"20.csv","","null","resources/maskTrios/BBA2.jpg","null","",NA,NA,NA,NA,""
"image-keyboard-response",271,227719,"0.0-3.86-2.86","mwcqrrcczvjsbnx",130,"20.csv","","null","resources/images/fishbone.png","null","",NA,NA,NA,NA,""
"image-keyboard-response",272,228081,"0.0-3.87-0.87","mwcqrrcczvjsbnx",130,"20.csv","","360.30000001192093","resources/trios/L2T2A2.jpg","39","restless",0.7,0.6,0.7,0.86489543899824,"false"
"image-keyboard-response",273,228486,"0.0-3.87-1.87","mwcqrrcczvjsbnx",130,"20.csv","","null","resources/maskTrios/BBA2.jpg","null","",NA,NA,NA,NA,""
"image-keyboard-response",274,229693,"0.0-3.87-2.87","mwcqrrcczvjsbnx",130,"20.csv","","null","resources/images/fishbone.png","null","",NA,NA,NA,NA,""
"image-keyboard-response",275,230575,"0.0-3.88-0.88","mwcqrrcczvjsbnx",130,"20.csv","","880.7000000178814","resources/trios/L1T1A3.jpg","38","restless",0.7,0.6,0.7,0.237942186948353,"true"
"image-keyboard-response",276,230982,"0.0-3.88-1.88","mwcqrrcczvjsbnx",130,"20.csv","","null","resources/maskTrios/BT1B.jpg","null","",NA,NA,NA,NA,""
"image-keyboard-response",277,232190,"0.0-3.88-2.88","mwcqrrcczvjsbnx",130,"20.csv","","null","resources/images/coin2.png","null","",NA,NA,NA,NA,""
"image-keyboard-response",278,232495,"0.0-3.89-0.89","mwcqrrcczvjsbnx",130,"20.csv","","303.5","resources/trios/L2T1A2.jpg","39","restless",0.7,0.6,0.7,0.297745170362824,"true"
"image-keyboard-response",279,232902,"0.0-3.89-1.89","mwcqrrcczvjsbnx",130,"20.csv","","null","resources/maskTrios/BBA2.jpg","null","",NA,NA,NA,NA,""
"image-keyboard-response",280,234105,"0.0-3.89-2.89","mwcqrrcczvjsbnx",130,"20.csv","","null","resources/images/coin2.png","null","",NA,NA,NA,NA,""
"image-keyboard-response",281,234890,"0.0-3.90-0.90","mwcqrrcczvjsbnx",130,"20.csv","","782.5","resources/trios/L2T2A3.jpg","39","restless",0.7,0.6,0.7,0.769257678618727,"false"
"image-keyboard-response",282,235298,"0.0-3.90-1.90","mwcqrrcczvjsbnx",130,"20.csv","","null","resources/maskTrios/BBA3.jpg","null","",NA,NA,NA,NA,""
"image-keyboard-response",283,236504,"0.0-3.90-2.90","mwcqrrcczvjsbnx",130,"20.csv","","null","resources/images/fishbone.png","null","",NA,NA,NA,NA,""
"image-keyboard-response",284,236867,"0.0-3.91-0.91","mwcqrrcczvjsbnx",130,"20.csv","","360.5","resources/trios/L2T2A3.jpg","38","restless",0.7,0.6,0.8,0.184006749068279,"true"
"image-keyboard-response",285,237274,"0.0-3.91-1.91","mwcqrrcczvjsbnx",130,"20.csv","","null","resources/maskTrios/BT2B.jpg","null","",NA,NA,NA,NA,""
"image-keyboard-response",286,238481,"0.0-3.91-2.91","mwcqrrcczvjsbnx",130,"20.csv","","null","resources/images/coin2.png","null","",NA,NA,NA,NA,""
"image-keyboard-response",287,238555,"0.0-3.92-0.92","mwcqrrcczvjsbnx",130,"20.csv","","71.40000000596046","resources/trios/L1T2A2.jpg","37","restless",0.7,0.6,0.8,0.525491302010753,"true"
"image-keyboard-response",288,238961,"0.0-3.92-1.92","mwcqrrcczvjsbnx",130,"20.csv","","null","resources/maskTrios/L1BB.jpg","null","",NA,NA,NA,NA,""
"image-keyboard-response",289,240165,"0.0-3.92-2.92","mwcqrrcczvjsbnx",130,"20.csv","","null","resources/images/coin2.png","null","",NA,NA,NA,NA,""
"image-keyboard-response",290,240525,"0.0-3.93-0.93","mwcqrrcczvjsbnx",130,"20.csv","","358.59999999403954","resources/trios/L1T1A3.jpg","39","restless",0.7,0.6,0.8,0.592399637568554,"true"
"image-keyboard-response",291,240929,"0.0-3.93-1.93","mwcqrrcczvjsbnx",130,"20.csv","","null","resources/maskTrios/BBA3.jpg","null","",NA,NA,NA,NA,""
"image-keyboard-response",292,242135,"0.0-3.93-2.93","mwcqrrcczvjsbnx",130,"20.csv","","null","resources/images/coin2.png","null","",NA,NA,NA,NA,""
"image-keyboard-response",293,242863,"0.0-3.94-0.94","mwcqrrcczvjsbnx",130,"20.csv","","726","resources/trios/L1T1A3.jpg","39","restless",0.7,0.6,0.8,0.29631048743187,"true"
"image-keyboard-response",294,243270,"0.0-3.94-1.94","mwcqrrcczvjsbnx",130,"20.csv","","null","resources/maskTrios/BBA3.jpg","null","",NA,NA,NA,NA,""
"image-keyboard-response",295,244477,"0.0-3.94-2.94","mwcqrrcczvjsbnx",130,"20.csv","","null","resources/images/coin2.png","null","",NA,NA,NA,NA,""
"image-keyboard-response",296,244900,"0.0-3.95-0.95","mwcqrrcczvjsbnx",130,"20.csv","","420.30000001192093","resources/trios/L2T2A3.jpg","39","restless",0.7,0.6,0.8,0.938786294499013,"false"
"image-keyboard-response",297,245303,"0.0-3.95-1.95","mwcqrrcczvjsbnx",130,"20.csv","","null","resources/maskTrios/BBA3.jpg","null","",NA,NA,NA,NA,""
"image-keyboard-response",298,246505,"0.0-3.95-2.95","mwcqrrcczvjsbnx",130,"20.csv","","null","resources/images/fishbone.png","null","",NA,NA,NA,NA,""
"image-keyboard-response",299,246849,"0.0-3.96-0.96","mwcqrrcczvjsbnx",130,"20.csv","","341.5","resources/trios/L2T1A2.jpg","38","restless",0.7,0.5,0.8,0.456240227192271,"true"
"image-keyboard-response",300,247256,"0.0-3.96-1.96","mwcqrrcczvjsbnx",130,"20.csv","","null","resources/maskTrios/BT1B.jpg","null","",NA,NA,NA,NA,""
"image-keyboard-response",301,248464,"0.0-3.96-2.96","mwcqrrcczvjsbnx",130,"20.csv","","null","resources/images/coin2.png","null","",NA,NA,NA,NA,""
"image-keyboard-response",302,248750,"0.0-3.97-0.97","mwcqrrcczvjsbnx",130,"20.csv","","284","resources/trios/L2T2A2.jpg","39","restless",0.7,0.5,0.8,0.403653581073287,"true"
"image-keyboard-response",303,249157,"0.0-3.97-1.97","mwcqrrcczvjsbnx",130,"20.csv","","null","resources/maskTrios/BBA2.jpg","null","",NA,NA,NA,NA,""
"image-keyboard-response",304,250364,"0.0-3.97-2.97","mwcqrrcczvjsbnx",130,"20.csv","","null","resources/images/coin2.png","null","",NA,NA,NA,NA,""
"image-keyboard-response",305,250716,"0.0-3.98-0.98","mwcqrrcczvjsbnx",130,"20.csv","","349.09999999403954","resources/trios/L1T2A3.jpg","38","restless",0.7,0.5,0.8,0.728306156422411,"false"
"image-keyboard-response",306,251123,"0.0-3.98-1.98","mwcqrrcczvjsbnx",130,"20.csv","","null","resources/maskTrios/BT2B.jpg","null","",NA,NA,NA,NA,""
"image-keyboard-response",307,252329,"0.0-3.98-2.98","mwcqrrcczvjsbnx",130,"20.csv","","null","resources/images/fishbone.png","null","",NA,NA,NA,NA,""
"image-keyboard-response",308,252575,"0.0-3.99-0.99","mwcqrrcczvjsbnx",130,"20.csv","","242.5","resources/trios/L2T1A2.jpg","37","restless",0.7,0.5,0.7,0.890516838926553,"false"
"image-keyboard-response",309,252982,"0.0-3.99-1.99","mwcqrrcczvjsbnx",130,"20.csv","","null","resources/maskTrios/L2BB.jpg","null","",NA,NA,NA,NA,""
"image-keyboard-response",310,254189,"0.0-3.99-2.99","mwcqrrcczvjsbnx",130,"20.csv","","null","resources/images/fishbone.png","null","",NA,NA,NA,NA,""
"image-keyboard-response",311,254483,"0.0-3.100-0.100","mwcqrrcczvjsbnx",130,"20.csv","","292.09999999403954","resources/trios/L2T1A2.jpg","39","restless",0.7,0.5,0.7,0.36494068189232,"true"
"image-keyboard-response",312,254887,"0.0-3.100-1.100","mwcqrrcczvjsbnx",130,"20.csv","","null","resources/maskTrios/BBA2.jpg","null","",NA,NA,NA,NA,""
"image-keyboard-response",313,256094,"0.0-3.100-2.100","mwcqrrcczvjsbnx",130,"20.csv","","null","resources/images/coin2.png","null","",NA,NA,NA,NA,""
"image-keyboard-response",314,256607,"0.0-3.101-0.101","mwcqrrcczvjsbnx",130,"20.csv","","510.7999999821186","resources/trios/L2T1A3.jpg","39","restless",0.7,0.5,0.7,0.838413150700347,"false"
"image-keyboard-response",315,257014,"0.0-3.101-1.101","mwcqrrcczvjsbnx",130,"20.csv","","null","resources/maskTrios/BBA3.jpg","null","",NA,NA,NA,NA,""
"image-keyboard-response",316,258220,"0.0-3.101-2.101","mwcqrrcczvjsbnx",130,"20.csv","","null","resources/images/fishbone.png","null","",NA,NA,NA,NA,""
"image-keyboard-response",317,258541,"0.0-3.102-0.102","mwcqrrcczvjsbnx",130,"20.csv","","318.09999999403954","resources/trios/L1T1A3.jpg","38","restless",0.7,0.5,0.8,0.122518845878727,"true"
"image-keyboard-response",318,258948,"0.0-3.102-1.102","mwcqrrcczvjsbnx",130,"20.csv","","null","resources/maskTrios/BT1B.jpg","null","",NA,NA,NA,NA,""
"image-keyboard-response",319,260150,"0.0-3.102-2.102","mwcqrrcczvjsbnx",130,"20.csv","","null","resources/images/coin2.png","null","",NA,NA,NA,NA,""
"image-keyboard-response",320,260173,"0.0-3.103-0.103","mwcqrrcczvjsbnx",130,"20.csv","","21","resources/trios/L1T1A2.jpg","39","restless",0.7,0.5,0.7,0.146563332342131,"true"
"image-keyboard-response",321,260580,"0.0-3.103-1.103","mwcqrrcczvjsbnx",130,"20.csv","","null","resources/maskTrios/BBA2.jpg","null","",NA,NA,NA,NA,""
"image-keyboard-response",322,261787,"0.0-3.103-2.103","mwcqrrcczvjsbnx",130,"20.csv","","null","resources/images/coin2.png","null","",NA,NA,NA,NA,""
"image-keyboard-response",323,262916,"0.0-3.104-0.104","mwcqrrcczvjsbnx",130,"20.csv","","1126.5999999940395","resources/trios/L2T2A3.jpg","39","restless",0.7,0.5,0.7,0.475541217893257,"true"
"image-keyboard-response",324,263323,"0.0-3.104-1.104","mwcqrrcczvjsbnx",130,"20.csv","","null","resources/maskTrios/BBA3.jpg","null","",NA,NA,NA,NA,""
"image-keyboard-response",325,264529,"0.0-3.104-2.104","mwcqrrcczvjsbnx",130,"20.csv","","null","resources/images/coin2.png","null","",NA,NA,NA,NA,""
"image-keyboard-response",326,267582,"0.0-3.105-0.105","mwcqrrcczvjsbnx",130,"20.csv","","3050.7999999821186","resources/trios/L2T2A3.jpg","37","restless",0.7,0.5,0.7,0.902979027897762,"false"
"image-keyboard-response",327,267986,"0.0-3.105-1.105","mwcqrrcczvjsbnx",130,"20.csv","","null","resources/maskTrios/L2BB.jpg","null","",NA,NA,NA,NA,""
"image-keyboard-response",328,269192,"0.0-3.105-2.105","mwcqrrcczvjsbnx",130,"20.csv","","null","resources/images/fishbone.png","null","",NA,NA,NA,NA,""
"image-keyboard-response",329,269489,"0.0-3.106-0.106","mwcqrrcczvjsbnx",130,"20.csv","","294.69999998807907","resources/trios/L1T1A3.jpg","37","restless",0.7,0.5,0.7,0.101538151276004,"true"
"image-keyboard-response",330,269895,"0.0-3.106-1.106","mwcqrrcczvjsbnx",130,"20.csv","","null","resources/maskTrios/L1BB.jpg","null","",NA,NA,NA,NA,""
"image-keyboard-response",331,271102,"0.0-3.106-2.106","mwcqrrcczvjsbnx",130,"20.csv","","null","resources/images/coin2.png","null","",NA,NA,NA,NA,""
"image-keyboard-response",332,271594,"0.0-3.107-0.107","mwcqrrcczvjsbnx",130,"20.csv","","490.09999999403954","resources/trios/L1T2A3.jpg","39","restless",0.7,0.5,0.7,0.801801900555105,"false"
"image-keyboard-response",333,271997,"0.0-3.107-1.107","mwcqrrcczvjsbnx",130,"20.csv","","null","resources/maskTrios/BBA3.jpg","null","",NA,NA,NA,NA,""
"image-keyboard-response",334,273199,"0.0-3.107-2.107","mwcqrrcczvjsbnx",130,"20.csv","","null","resources/images/fishbone.png","null","",NA,NA,NA,NA,""
"image-keyboard-response",335,273641,"0.0-3.108-0.108","mwcqrrcczvjsbnx",130,"20.csv","","440.19999998807907","resources/trios/L1T2A3.jpg","38","restless",0.7,0.5,0.7,0.645605146361754,"false"
"image-keyboard-response",336,274048,"0.0-3.108-1.108","mwcqrrcczvjsbnx",130,"20.csv","","null","resources/maskTrios/BT2B.jpg","null","",NA,NA,NA,NA,""
"image-keyboard-response",337,275250,"0.0-3.108-2.108","mwcqrrcczvjsbnx",130,"20.csv","","null","resources/images/fishbone.png","null","",NA,NA,NA,NA,""
"image-keyboard-response",338,275565,"0.0-3.109-0.109","mwcqrrcczvjsbnx",130,"20.csv","","312","resources/trios/L1T2A2.jpg","37","restless",0.7,0.4,0.7,0.445531237187115,"true"
"image-keyboard-response",339,275972,"0.0-3.109-1.109","mwcqrrcczvjsbnx",130,"20.csv","","null","resources/maskTrios/L1BB.jpg","null","",NA,NA,NA,NA,""
"image-keyboard-response",340,277179,"0.0-3.109-2.109","mwcqrrcczvjsbnx",130,"20.csv","","null","resources/images/coin2.png","null","",NA,NA,NA,NA,""
"image-keyboard-response",341,277201,"0.0-3.110-0.110","mwcqrrcczvjsbnx",130,"20.csv","","19.900000005960464","resources/trios/L1T2A2.jpg","39","restless",0.7,0.4,0.7,0.606464358076374,"true"
"image-keyboard-response",342,277604,"0.0-3.110-1.110","mwcqrrcczvjsbnx",130,"20.csv","","null","resources/maskTrios/BBA2.jpg","null","",NA,NA,NA,NA,""
"image-keyboard-response",343,278811,"0.0-3.110-2.110","mwcqrrcczvjsbnx",130,"20.csv","","null","resources/images/coin2.png","null","",NA,NA,NA,NA,""
"image-keyboard-response",344,279076,"0.0-3.111-0.111","mwcqrrcczvjsbnx",130,"20.csv","","262.7000000178814","resources/trios/L2T2A3.jpg","38","restless",0.7,0.4,0.7,0.0185443276627066,"true"
"image-keyboard-response",345,279480,"0.0-3.111-1.111","mwcqrrcczvjsbnx",130,"20.csv","","null","resources/maskTrios/BT2B.jpg","null","",NA,NA,NA,NA,""
"image-keyboard-response",346,280687,"0.0-3.111-2.111","mwcqrrcczvjsbnx",130,"20.csv","","null","resources/images/coin2.png","null","",NA,NA,NA,NA,""
"image-keyboard-response",347,280952,"0.0-3.112-0.112","mwcqrrcczvjsbnx",130,"20.csv","","262.90000000596046","resources/trios/L1T1A2.jpg","39","restless",0.7,0.4,0.6,0.336610339214523,"true"
"image-keyboard-response",348,281360,"0.0-3.112-1.112","mwcqrrcczvjsbnx",130,"20.csv","","null","resources/maskTrios/BBA2.jpg","null","",NA,NA,NA,NA,""
"image-keyboard-response",349,282567,"0.0-3.112-2.112","mwcqrrcczvjsbnx",130,"20.csv","","null","resources/images/coin2.png","null","",NA,NA,NA,NA,""
"image-keyboard-response",350,283128,"0.0-3.113-0.113","mwcqrrcczvjsbnx",130,"20.csv","","558.9000000059605","resources/trios/L1T1A2.jpg","39","restless",0.7,0.4,0.5,0.436855347983792,"true"
"image-keyboard-response",351,283535,"0.0-3.113-1.113","mwcqrrcczvjsbnx",130,"20.csv","","null","resources/maskTrios/BBA2.jpg","null","",NA,NA,NA,NA,""
"image-keyboard-response",352,284742,"0.0-3.113-2.113","mwcqrrcczvjsbnx",130,"20.csv","","null","resources/images/coin2.png","null","",NA,NA,NA,NA,""
"image-keyboard-response",353,285069,"0.0-3.114-0.114","mwcqrrcczvjsbnx",130,"20.csv","","324.60000002384186","resources/trios/L1T1A2.jpg","39","restless",0.7,0.3,0.5,0.820023995109302,"false"
"image-keyboard-response",354,285476,"0.0-3.114-1.114","mwcqrrcczvjsbnx",130,"20.csv","","null","resources/maskTrios/BBA2.jpg","null","",NA,NA,NA,NA,""
"image-keyboard-response",355,286680,"0.0-3.114-2.114","mwcqrrcczvjsbnx",130,"20.csv","","null","resources/images/fishbone.png","null","",NA,NA,NA,NA,""
"image-keyboard-response",356,287284,"0.0-3.115-0.115","mwcqrrcczvjsbnx",130,"20.csv","","601.2000000178814","resources/trios/L1T1A3.jpg","38","restless",0.7,0.4,0.5,0.0335425782773917,"true"
"image-keyboard-response",357,287686,"0.0-3.115-1.115","mwcqrrcczvjsbnx",130,"20.csv","","null","resources/maskTrios/BT1B.jpg","null","",NA,NA,NA,NA,""
"image-keyboard-response",358,288893,"0.0-3.115-2.115","mwcqrrcczvjsbnx",130,"20.csv","","null","resources/images/coin2.png","null","",NA,NA,NA,NA,""
"image-keyboard-response",359,289311,"0.0-3.116-0.116","mwcqrrcczvjsbnx",130,"20.csv","","414.89999997615814","resources/trios/L2T1A2.jpg","37","restless",0.7,0.4,0.5,0.40213171836285,"true"
"image-keyboard-response",360,289718,"0.0-3.116-1.116","mwcqrrcczvjsbnx",130,"20.csv","","null","resources/maskTrios/L2BB.jpg","null","",NA,NA,NA,NA,""
"image-keyboard-response",361,290925,"0.0-3.116-2.116","mwcqrrcczvjsbnx",130,"20.csv","","null","resources/images/coin2.png","null","",NA,NA,NA,NA,""
"image-keyboard-response",362,291296,"0.0-3.117-0.117","mwcqrrcczvjsbnx",130,"20.csv","","368.5","resources/trios/L2T2A3.jpg","39","restless",0.7,0.4,0.5,0.555266318836208,"false"
"image-keyboard-response",363,291700,"0.0-3.117-1.117","mwcqrrcczvjsbnx",130,"20.csv","","null","resources/maskTrios/BBA3.jpg","null","",NA,NA,NA,NA,""
"image-keyboard-response",364,292906,"0.0-3.117-2.117","mwcqrrcczvjsbnx",130,"20.csv","","null","resources/images/fishbone.png","null","",NA,NA,NA,NA,""
"image-keyboard-response",365,293140,"0.0-3.118-0.118","mwcqrrcczvjsbnx",130,"20.csv","","231.89999997615814","resources/trios/L2T2A2.jpg","38","restless",0.8,0.4,0.5,0.672252365046376,"false"
"image-keyboard-response",366,293548,"0.0-3.118-1.118","mwcqrrcczvjsbnx",130,"20.csv","","null","resources/maskTrios/BT2B.jpg","null","",NA,NA,NA,NA,""
"image-keyboard-response",367,294750,"0.0-3.118-2.118","mwcqrrcczvjsbnx",130,"20.csv","","null","resources/images/fishbone.png","null","",NA,NA,NA,NA,""
"image-keyboard-response",368,294837,"0.0-3.119-0.119","mwcqrrcczvjsbnx",130,"20.csv","","85.40000000596046","resources/trios/L1T1A2.jpg","37","restless",0.8,0.4,0.5,0.206249224615994,"true"
"image-keyboard-response",369,295242,"0.0-3.119-1.119","mwcqrrcczvjsbnx",130,"20.csv","","null","resources/maskTrios/L1BB.jpg","null","",NA,NA,NA,NA,""
"image-keyboard-response",370,296446,"0.0-3.119-2.119","mwcqrrcczvjsbnx",130,"20.csv","","null","resources/images/coin2.png","null","",NA,NA,NA,NA,""
"image-keyboard-response",371,296959,"0.0-3.120-0.120","mwcqrrcczvjsbnx",130,"20.csv","","510.39999997615814","resources/trios/L1T2A2.jpg","39","restless",0.8,0.4,0.5,0.061837330147692,"true"
"image-keyboard-response",372,297361,"0.0-3.120-1.120","mwcqrrcczvjsbnx",130,"20.csv","","null","resources/maskTrios/BBA2.jpg","null","",NA,NA,NA,NA,""
"image-keyboard-response",373,298568,"0.0-3.120-2.120","mwcqrrcczvjsbnx",130,"20.csv","","null","resources/images/coin2.png","null","",NA,NA,NA,NA,""
"image-keyboard-response",374,298989,"0.0-3.121-0.121","mwcqrrcczvjsbnx",130,"20.csv","","418.80000001192093","resources/trios/L2T1A2.jpg","39","restless",0.8,0.4,0.5,0.40094859600297,"true"
"image-keyboard-response",375,299394,"0.0-3.121-1.121","mwcqrrcczvjsbnx",130,"20.csv","","null","resources/maskTrios/BBA2.jpg","null","",NA,NA,NA,NA,""
"image-keyboard-response",376,300602,"0.0-3.121-2.121","mwcqrrcczvjsbnx",130,"20.csv","","null","resources/images/coin2.png","null","",NA,NA,NA,NA,""
"image-keyboard-response",377,300944,"0.0-3.122-0.122","mwcqrrcczvjsbnx",130,"20.csv","","340.7000000178814","resources/trios/L2T1A2.jpg","39","restless",0.8,0.3,0.5,0.468657957388046,"true"
"image-keyboard-response",378,301352,"0.0-3.122-1.122","mwcqrrcczvjsbnx",130,"20.csv","","null","resources/maskTrios/BBA2.jpg","null","",NA,NA,NA,NA,""
"image-keyboard-response",379,302555,"0.0-3.122-2.122","mwcqrrcczvjsbnx",130,"20.csv","","null","resources/images/coin2.png","null","",NA,NA,NA,NA,""
"image-keyboard-response",380,303058,"0.0-3.123-0.123","mwcqrrcczvjsbnx",130,"20.csv","","501","resources/trios/L1T1A3.jpg","39","restless",0.8,0.3,0.5,0.485218081651559,"true"
"image-keyboard-response",381,303460,"0.0-3.123-1.123","mwcqrrcczvjsbnx",130,"20.csv","","null","resources/maskTrios/BBA3.jpg","null","",NA,NA,NA,NA,""
"image-keyboard-response",382,304668,"0.0-3.123-2.123","mwcqrrcczvjsbnx",130,"20.csv","","null","resources/images/coin2.png","null","",NA,NA,NA,NA,""
"image-keyboard-response",383,305078,"0.0-3.124-0.124","mwcqrrcczvjsbnx",130,"20.csv","","408.59999999403954","resources/trios/L1T2A3.jpg","39","restless",0.8,0.3,0.5,0.430553559907504,"true"
"image-keyboard-response",384,305486,"0.0-3.124-1.124","mwcqrrcczvjsbnx",130,"20.csv","","null","resources/maskTrios/BBA3.jpg","null","",NA,NA,NA,NA,""
"image-keyboard-response",385,306692,"0.0-3.124-2.124","mwcqrrcczvjsbnx",130,"20.csv","","null","resources/images/coin2.png","null","",NA,NA,NA,NA,""
"image-keyboard-response",386,307222,"0.0-3.125-0.125","mwcqrrcczvjsbnx",130,"20.csv","","527.5999999940395","resources/trios/L1T1A2.jpg","39","restless",0.8,0.3,0.6,0.181324142672984,"true"
"image-keyboard-response",387,307628,"0.0-3.125-1.125","mwcqrrcczvjsbnx",130,"20.csv","","null","resources/maskTrios/BBA2.jpg","null","",NA,NA,NA,NA,""
"image-keyboard-response",388,308835,"0.0-3.125-2.125","mwcqrrcczvjsbnx",130,"20.csv","","null","resources/images/coin2.png","null","",NA,NA,NA,NA,""
"image-keyboard-response",389,309188,"0.0-3.126-0.126","mwcqrrcczvjsbnx",130,"20.csv","","350.90000000596046","resources/trios/L2T2A2.jpg","39","restless",0.8,0.3,0.6,0.199434960317769,"true"
"image-keyboard-response",390,309593,"0.0-3.126-1.126","mwcqrrcczvjsbnx",130,"20.csv","","null","resources/maskTrios/BBA2.jpg","null","",NA,NA,NA,NA,""
"image-keyboard-response",391,310800,"0.0-3.126-2.126","mwcqrrcczvjsbnx",130,"20.csv","","null","resources/images/coin2.png","null","",NA,NA,NA,NA,""
"image-keyboard-response",392,311169,"0.0-3.127-0.127","mwcqrrcczvjsbnx",130,"20.csv","","367.09999999403954","resources/trios/L1T2A3.jpg","38","restless",0.8,0.2,0.6,0.0196253219564275,"true"
"image-keyboard-response",393,311576,"0.0-3.127-1.127","mwcqrrcczvjsbnx",130,"20.csv","","null","resources/maskTrios/BT2B.jpg","null","",NA,NA,NA,NA,""
"image-keyboard-response",394,312782,"0.0-3.127-2.127","mwcqrrcczvjsbnx",130,"20.csv","","null","resources/images/coin2.png","null","",NA,NA,NA,NA,""
"image-keyboard-response",395,313101,"0.0-3.128-0.128","mwcqrrcczvjsbnx",130,"20.csv","","317.30000001192093","resources/trios/L2T1A3.jpg","39","restless",0.7,0.2,0.6,0.135245679164864,"true"
"image-keyboard-response",396,313506,"0.0-3.128-1.128","mwcqrrcczvjsbnx",130,"20.csv","","null","resources/maskTrios/BBA3.jpg","null","",NA,NA,NA,NA,""
"image-keyboard-response",397,314711,"0.0-3.128-2.128","mwcqrrcczvjsbnx",130,"20.csv","","null","resources/images/coin2.png","null","",NA,NA,NA,NA,""
"image-keyboard-response",398,315696,"0.0-3.129-0.129","mwcqrrcczvjsbnx",130,"20.csv","","983.2999999821186","resources/trios/L1T2A3.jpg","39","restless",0.7,0.2,0.6,0.344568544036065,"true"
"image-keyboard-response",399,316103,"0.0-3.129-1.129","mwcqrrcczvjsbnx",130,"20.csv","","null","resources/maskTrios/BBA3.jpg","null","",NA,NA,NA,NA,""
"image-keyboard-response",400,317310,"0.0-3.129-2.129","mwcqrrcczvjsbnx",130,"20.csv","","null","resources/images/coin2.png","null","",NA,NA,NA,NA,""
"image-keyboard-response",401,317911,"0.0-3.130-0.130","mwcqrrcczvjsbnx",130,"20.csv","","598.5","resources/trios/L2T1A2.jpg","39","restless",0.7,0.2,0.5,0.793418930082737,"false"
"image-keyboard-response",402,318316,"0.0-3.130-1.130","mwcqrrcczvjsbnx",130,"20.csv","","null","resources/maskTrios/BBA2.jpg","null","",NA,NA,NA,NA,""
"image-keyboard-response",403,319523,"0.0-3.130-2.130","mwcqrrcczvjsbnx",130,"20.csv","","null","resources/images/fishbone.png","null","",NA,NA,NA,NA,""
"image-keyboard-response",404,319935,"0.0-3.131-0.131","mwcqrrcczvjsbnx",130,"20.csv","","409.7999999821186","resources/trios/L2T2A2.jpg","38","restless",0.7,0.2,0.5,0.265555289086137,"false"
"image-keyboard-response",405,320342,"0.0-3.131-1.131","mwcqrrcczvjsbnx",130,"20.csv","","null","resources/maskTrios/BT2B.jpg","null","",NA,NA,NA,NA,""
"image-keyboard-response",406,321545,"0.0-3.131-2.131","mwcqrrcczvjsbnx",130,"20.csv","","null","resources/images/fishbone.png","null","",NA,NA,NA,NA,""
"image-keyboard-response",407,321839,"0.0-3.132-0.132","mwcqrrcczvjsbnx",130,"20.csv","","291.69999998807907","resources/trios/L2T1A3.jpg","37","restless",0.7,0.2,0.5,0.892017052847618,"false"
"image-keyboard-response",408,322246,"0.0-3.132-1.132","mwcqrrcczvjsbnx",130,"20.csv","","null","resources/maskTrios/L2BB.jpg","null","",NA,NA,NA,NA,""
"image-keyboard-response",409,323453,"0.0-3.132-2.132","mwcqrrcczvjsbnx",130,"20.csv","","null","resources/images/fishbone.png","null","",NA,NA,NA,NA,""
"image-keyboard-response",410,323698,"0.0-3.133-0.133","mwcqrrcczvjsbnx",130,"20.csv","","242.30000001192093","resources/trios/L1T2A3.jpg","39","restless",0.7,0.2,0.5,0.214248044979007,"true"
"image-keyboard-response",411,324103,"0.0-3.133-1.133","mwcqrrcczvjsbnx",130,"20.csv","","null","resources/maskTrios/BBA3.jpg","null","",NA,NA,NA,NA,""
"image-keyboard-response",412,325310,"0.0-3.133-2.133","mwcqrrcczvjsbnx",130,"20.csv","","null","resources/images/coin2.png","null","",NA,NA,NA,NA,""
"image-keyboard-response",413,326005,"0.0-3.134-0.134","mwcqrrcczvjsbnx",130,"20.csv","","692.9000000059605","resources/trios/L1T2A2.jpg","39","restless",0.7,0.2,0.5,0.136690275391438,"true"
"image-keyboard-response",414,326410,"0.0-3.134-1.134","mwcqrrcczvjsbnx",130,"20.csv","","null","resources/maskTrios/BBA2.jpg","null","",NA,NA,NA,NA,""
"image-keyboard-response",415,327614,"0.0-3.134-2.134","mwcqrrcczvjsbnx",130,"20.csv","","null","resources/images/coin2.png","null","",NA,NA,NA,NA,""
"image-keyboard-response",416,328079,"0.0-3.135-0.135","mwcqrrcczvjsbnx",130,"20.csv","","461.90000000596046","resources/trios/L1T1A2.jpg","39","restless",0.7,0.2,0.4,0.284990549650106,"true"
"image-keyboard-response",417,328486,"0.0-3.135-1.135","mwcqrrcczvjsbnx",130,"20.csv","","null","resources/maskTrios/BBA2.jpg","null","",NA,NA,NA,NA,""
"image-keyboard-response",418,329692,"0.0-3.135-2.135","mwcqrrcczvjsbnx",130,"20.csv","","null","resources/images/coin2.png","null","",NA,NA,NA,NA,""
"image-keyboard-response",419,330223,"0.0-3.136-0.136","mwcqrrcczvjsbnx",130,"20.csv","","529","resources/trios/L2T1A2.jpg","39","restless",0.7,0.2,0.4,0.347658746318478,"true"
"image-keyboard-response",420,330628,"0.0-3.136-1.136","mwcqrrcczvjsbnx",130,"20.csv","","null","resources/maskTrios/BBA2.jpg","null","",NA,NA,NA,NA,""
"image-keyboard-response",421,331835,"0.0-3.136-2.136","mwcqrrcczvjsbnx",130,"20.csv","","null","resources/images/coin2.png","null","",NA,NA,NA,NA,""
"image-keyboard-response",422,332113,"0.0-3.137-0.137","mwcqrrcczvjsbnx",130,"20.csv","","275.90000000596046","resources/trios/L2T1A3.jpg","39","restless",0.7,0.2,0.4,0.644830969774705,"false"
"image-keyboard-response",423,332520,"0.0-3.137-1.137","mwcqrrcczvjsbnx",130,"20.csv","","null","resources/maskTrios/BBA3.jpg","null","",NA,NA,NA,NA,""
"image-keyboard-response",424,333727,"0.0-3.137-2.137","mwcqrrcczvjsbnx",130,"20.csv","","null","resources/images/fishbone.png","null","",NA,NA,NA,NA,""
"image-keyboard-response",425,334591,"0.0-3.138-0.138","mwcqrrcczvjsbnx",130,"20.csv","","861.7000000178814","resources/trios/L2T2A2.jpg","38","restless",0.7,0.2,0.4,0.74960835377833,"false"
"image-keyboard-response",426,334997,"0.0-3.138-1.138","mwcqrrcczvjsbnx",130,"20.csv","","null","resources/maskTrios/BT2B.jpg","null","",NA,NA,NA,NA,""
"image-keyboard-response",427,336204,"0.0-3.138-2.138","mwcqrrcczvjsbnx",130,"20.csv","","null","resources/images/fishbone.png","null","",NA,NA,NA,NA,""
"image-keyboard-response",428,336571,"0.0-3.139-0.139","mwcqrrcczvjsbnx",130,"20.csv","","364.5","resources/trios/L1T1A2.jpg","37","restless",0.7,0.2,0.4,0.832859042964962,"false"
"image-keyboard-response",429,336978,"0.0-3.139-1.139","mwcqrrcczvjsbnx",130,"20.csv","","null","resources/maskTrios/L1BB.jpg","null","",NA,NA,NA,NA,""
"image-keyboard-response",430,338180,"0.0-3.139-2.139","mwcqrrcczvjsbnx",130,"20.csv","","null","resources/images/fishbone.png","null","",NA,NA,NA,NA,""
"image-keyboard-response",431,338567,"0.0-3.140-0.140","mwcqrrcczvjsbnx",130,"20.csv","","385.09999999403954","resources/trios/L1T1A2.jpg","39","restless",0.7,0.2,0.4,0.886171133316604,"false"
"image-keyboard-response",432,338974,"0.0-3.140-1.140","mwcqrrcczvjsbnx",130,"20.csv","","null","resources/maskTrios/BBA2.jpg","null","",NA,NA,NA,NA,""
"image-keyboard-response",433,340179,"0.0-3.140-2.140","mwcqrrcczvjsbnx",130,"20.csv","","null","resources/images/fishbone.png","null","",NA,NA,NA,NA,""
"image-keyboard-response",434,340345,"0.0-3.141-0.141","mwcqrrcczvjsbnx",130,"20.csv","","163.5","resources/trios/L2T2A3.jpg","38","restless",0.7,0.2,0.4,0.668022246147512,"false"
"image-keyboard-response",435,340749,"0.0-3.141-1.141","mwcqrrcczvjsbnx",130,"20.csv","","null","resources/maskTrios/BT2B.jpg","null","",NA,NA,NA,NA,""
"image-keyboard-response",436,341956,"0.0-3.141-2.141","mwcqrrcczvjsbnx",130,"20.csv","","null","resources/images/fishbone.png","null","",NA,NA,NA,NA,""
"image-keyboard-response",437,342000,"0.0-3.142-0.142","mwcqrrcczvjsbnx",130,"20.csv","","41.599999994039536","resources/trios/L2T1A3.jpg","39","restless",0.7,0.2,0.4,0.231891555703104,"true"
"image-keyboard-response",438,342407,"0.0-3.142-1.142","mwcqrrcczvjsbnx",130,"20.csv","","null","resources/maskTrios/BBA3.jpg","null","",NA,NA,NA,NA,""
"image-keyboard-response",439,343614,"0.0-3.142-2.142","mwcqrrcczvjsbnx",130,"20.csv","","null","resources/images/coin2.png","null","",NA,NA,NA,NA,""
"image-keyboard-response",440,343964,"0.0-3.143-0.143","mwcqrrcczvjsbnx",130,"20.csv","","347.7000000178814","resources/trios/L2T2A2.jpg","39","restless",0.7,0.2,0.4,0.552474976569397,"false"
"image-keyboard-response",441,344367,"0.0-3.143-1.143","mwcqrrcczvjsbnx",130,"20.csv","","null","resources/maskTrios/BBA2.jpg","null","",NA,NA,NA,NA,""
"image-keyboard-response",442,345570,"0.0-3.143-2.143","mwcqrrcczvjsbnx",130,"20.csv","","null","resources/images/fishbone.png","null","",NA,NA,NA,NA,""
"image-keyboard-response",443,346057,"0.0-3.144-0.144","mwcqrrcczvjsbnx",130,"20.csv","","485.60000002384186","resources/trios/L2T1A2.jpg","37","restless",0.6,0.2,0.4,0.578297015366817,"true"
"image-keyboard-response",444,346465,"0.0-3.144-1.144","mwcqrrcczvjsbnx",130,"20.csv","","null","resources/maskTrios/L2BB.jpg","null","",NA,NA,NA,NA,""
"image-keyboard-response",445,347672,"0.0-3.144-2.144","mwcqrrcczvjsbnx",130,"20.csv","","null","resources/images/coin2.png","null","",NA,NA,NA,NA,""
"image-keyboard-response",446,348340,"0.0-3.145-0.145","mwcqrrcczvjsbnx",130,"20.csv","","666.4000000059605","resources/trios/L1T2A3.jpg","38","restless",0.6,0.2,0.4,0.810205383994832,"false"
"image-keyboard-response",447,348748,"0.0-3.145-1.145","mwcqrrcczvjsbnx",130,"20.csv","","null","resources/maskTrios/BT2B.jpg","null","",NA,NA,NA,NA,""
"image-keyboard-response",448,349951,"0.0-3.145-2.145","mwcqrrcczvjsbnx",130,"20.csv","","null","resources/images/fishbone.png","null","",NA,NA,NA,NA,""
"image-keyboard-response",449,350627,"0.0-3.146-0.146","mwcqrrcczvjsbnx",130,"20.csv","","673.9000000059605","resources/trios/L1T2A2.jpg","39","restless",0.6,0.2,0.4,0.121954079682104,"true"
"image-keyboard-response",450,351034,"0.0-3.146-1.146","mwcqrrcczvjsbnx",130,"20.csv","","null","resources/maskTrios/BBA2.jpg","null","",NA,NA,NA,NA,""
"image-keyboard-response",451,352241,"0.0-3.146-2.146","mwcqrrcczvjsbnx",130,"20.csv","","null","resources/images/coin2.png","null","",NA,NA,NA,NA,""
"image-keyboard-response",452,352428,"0.0-3.147-0.147","mwcqrrcczvjsbnx",130,"20.csv","","184.19999998807907","resources/trios/L1T2A3.jpg","39","restless",0.5,0.2,0.4,0.788617952218706,"false"
"image-keyboard-response",453,352835,"0.0-3.147-1.147","mwcqrrcczvjsbnx",130,"20.csv","","null","resources/maskTrios/BBA3.jpg","null","",NA,NA,NA,NA,""
"image-keyboard-response",454,354042,"0.0-3.147-2.147","mwcqrrcczvjsbnx",130,"20.csv","","null","resources/images/fishbone.png","null","",NA,NA,NA,NA,""
"image-keyboard-response",455,354305,"0.0-3.148-0.148","mwcqrrcczvjsbnx",130,"20.csv","","261.09999999403954","resources/trios/L2T1A2.jpg","39","restless",0.5,0.3,0.4,0.124998562334889,"true"
"image-keyboard-response",456,354711,"0.0-3.148-1.148","mwcqrrcczvjsbnx",130,"20.csv","","null","resources/maskTrios/BBA2.jpg","null","",NA,NA,NA,NA,""
"image-keyboard-response",457,355916,"0.0-3.148-2.148","mwcqrrcczvjsbnx",130,"20.csv","","null","resources/images/coin2.png","null","",NA,NA,NA,NA,""
"image-keyboard-response",458,357569,"0.0-3.149-0.149","mwcqrrcczvjsbnx",130,"20.csv","","1651.1000000238419","resources/trios/L2T2A2.jpg","39","restless",0.5,0.3,0.4,0.497471911952682,"false"
"image-keyboard-response",459,357976,"0.0-3.149-1.149","mwcqrrcczvjsbnx",130,"20.csv","","null","resources/maskTrios/BBA2.jpg","null","",NA,NA,NA,NA,""
"image-keyboard-response",460,359183,"0.0-3.149-2.149","mwcqrrcczvjsbnx",130,"20.csv","","null","resources/images/fishbone.png","null","",NA,NA,NA,NA,""
"image-keyboard-response",461,359680,"0.0-3.150-0.150","mwcqrrcczvjsbnx",130,"20.csv","","495.5","resources/trios/L1T1A3.jpg","37","restless",0.5,0.3,0.4,0.460247317653487,"true"
"image-keyboard-response",462,360087,"0.0-3.150-1.150","mwcqrrcczvjsbnx",130,"20.csv","","null","resources/maskTrios/L1BB.jpg","null","",NA,NA,NA,NA,""
"image-keyboard-response",463,361291,"0.0-3.150-2.150","mwcqrrcczvjsbnx",130,"20.csv","","null","resources/images/coin2.png","null","",NA,NA,NA,NA,""
"image-keyboard-response",464,361678,"0.0-3.151-0.151","mwcqrrcczvjsbnx",130,"20.csv","","385.2000000178814","resources/trios/L2T2A3.jpg","38","restless",0.5,0.3,0.4,0.868694559799377,"false"
"image-keyboard-response",465,362084,"0.0-3.151-1.151","mwcqrrcczvjsbnx",130,"20.csv","","null","resources/maskTrios/BT2B.jpg","null","",NA,NA,NA,NA,""
"image-keyboard-response",466,363291,"0.0-3.151-2.151","mwcqrrcczvjsbnx",130,"20.csv","","null","resources/images/fishbone.png","null","",NA,NA,NA,NA,""
"image-keyboard-response",467,364241,"0.0-3.152-0.152","mwcqrrcczvjsbnx",130,"20.csv","","948","resources/trios/L2T2A3.jpg","39","restless",0.5,0.3,0.4,0.336384543746584,"true"
"image-keyboard-response",468,364648,"0.0-3.152-1.152","mwcqrrcczvjsbnx",130,"20.csv","","null","resources/maskTrios/BBA3.jpg","null","",NA,NA,NA,NA,""
"image-keyboard-response",469,365856,"0.0-3.152-2.152","mwcqrrcczvjsbnx",130,"20.csv","","null","resources/images/coin2.png","null","",NA,NA,NA,NA,""
"image-keyboard-response",470,368259,"0.0-3.153-0.153","mwcqrrcczvjsbnx",130,"20.csv","","2401.699999988079","resources/trios/L2T1A3.jpg","39","restless",0.5,0.3,0.4,0.0314676233246476,"true"
"image-keyboard-response",471,368667,"0.0-3.153-1.153","mwcqrrcczvjsbnx",130,"20.csv","","null","resources/maskTrios/BBA3.jpg","null","",NA,NA,NA,NA,""
"image-keyboard-response",472,369874,"0.0-3.153-2.153","mwcqrrcczvjsbnx",130,"20.csv","","null","resources/images/coin2.png","null","",NA,NA,NA,NA,""
"image-keyboard-response",473,375196,"0.0-3.154-0.154","mwcqrrcczvjsbnx",130,"20.csv","","5319.799999982119","resources/trios/L2T1A3.jpg","37","restless",0.4,0.3,0.4,0.476486407827111,"false"
"image-keyboard-response",474,375603,"0.0-3.154-1.154","mwcqrrcczvjsbnx",130,"20.csv","","null","resources/maskTrios/L2BB.jpg","null","",NA,NA,NA,NA,""
"image-keyboard-response",475,376809,"0.0-3.154-2.154","mwcqrrcczvjsbnx",130,"20.csv","","null","resources/images/fishbone.png","null","",NA,NA,NA,NA,""
"image-keyboard-response",476,379587,"0.0-3.155-0.155","mwcqrrcczvjsbnx",130,"20.csv","","2776","resources/trios/L1T1A2.jpg","39","restless",0.4,0.3,0.4,0.739739496901348,"false"
"image-keyboard-response",477,379992,"0.0-3.155-1.155","mwcqrrcczvjsbnx",130,"20.csv","","null","resources/maskTrios/BBA2.jpg","null","",NA,NA,NA,NA,""
"image-keyboard-response",478,381196,"0.0-3.155-2.155","mwcqrrcczvjsbnx",130,"20.csv","","null","resources/images/fishbone.png","null","",NA,NA,NA,NA,""
"image-keyboard-response",479,382066,"0.0-3.156-0.156","mwcqrrcczvjsbnx",130,"20.csv","","867.7000000178814","resources/trios/L1T1A3.jpg","38","restless",0.4,0.3,0.4,0.881629242439007,"false"
"image-keyboard-response",480,382473,"0.0-3.156-1.156","mwcqrrcczvjsbnx",130,"20.csv","","null","resources/maskTrios/BT1B.jpg","null","",NA,NA,NA,NA,""
"image-keyboard-response",481,383678,"0.0-3.156-2.156","mwcqrrcczvjsbnx",130,"20.csv","","null","resources/images/fishbone.png","null","",NA,NA,NA,NA,""
"image-keyboard-response",482,390034,"0.0-3.157-0.157","mwcqrrcczvjsbnx",130,"20.csv","","6353.699999988079","resources/trios/L2T2A3.jpg","39","restless",0.4,0.4,0.4,0.869857387850418,"false"
"image-keyboard-response",483,390441,"0.0-3.157-1.157","mwcqrrcczvjsbnx",130,"20.csv","","null","resources/maskTrios/BBA3.jpg","null","",NA,NA,NA,NA,""
"image-keyboard-response",484,391648,"0.0-3.157-2.157","mwcqrrcczvjsbnx",130,"20.csv","","null","resources/images/fishbone.png","null","",NA,NA,NA,NA,""
"image-keyboard-response",485,396814,"0.0-3.158-0.158","mwcqrrcczvjsbnx",130,"20.csv","","5163.4000000059605","resources/trios/L2T2A2.jpg","39","restless",0.4,0.4,0.4,0.320182941957015,"true"
"image-keyboard-response",486,397222,"0.0-3.158-1.158","mwcqrrcczvjsbnx",130,"20.csv","","null","resources/maskTrios/BBA2.jpg","null","",NA,NA,NA,NA,""
"image-keyboard-response",487,398426,"0.0-3.158-2.158","mwcqrrcczvjsbnx",130,"20.csv","","null","resources/images/coin2.png","null","",NA,NA,NA,NA,""
"image-keyboard-response",488,402259,"0.0-3.159-0.159","mwcqrrcczvjsbnx",130,"20.csv","","3829.9000000059605","resources/trios/L2T1A2.jpg","39","restless",0.4,0.4,0.4,0.887956181281985,"false"
"image-keyboard-response",489,402663,"0.0-3.159-1.159","mwcqrrcczvjsbnx",130,"20.csv","","null","resources/maskTrios/BBA2.jpg","null","",NA,NA,NA,NA,""
"image-keyboard-response",490,403865,"0.0-3.159-2.159","mwcqrrcczvjsbnx",130,"20.csv","","null","resources/images/fishbone.png","null","",NA,NA,NA,NA,""
"image-keyboard-response",491,405080,"0.0-3.160-0.160","mwcqrrcczvjsbnx",130,"20.csv","","1212.800000011921","resources/trios/L1T2A3.jpg","39","restless",0.4,0.4,0.4,0.363624299889227,"true"
"image-keyboard-response",492,405487,"0.0-3.160-1.160","mwcqrrcczvjsbnx",130,"20.csv","","null","resources/maskTrios/BBA3.jpg","null","",NA,NA,NA,NA,""
"image-keyboard-response",493,406690,"0.0-3.160-2.160","mwcqrrcczvjsbnx",130,"20.csv","","null","resources/images/coin2.png","null","",NA,NA,NA,NA,""
"image-keyboard-response",494,407107,"0.0-3.161-0.161","mwcqrrcczvjsbnx",130,"20.csv","","414.09999999403954","resources/trios/L1T1A2.jpg","38","restless",0.4,0.4,0.4,0.260957168029627,"true"
"image-keyboard-response",495,407511,"0.0-3.161-1.161","mwcqrrcczvjsbnx",130,"20.csv","","null","resources/maskTrios/BT1B.jpg","null","",NA,NA,NA,NA,""
"image-keyboard-response",496,408718,"0.0-3.161-2.161","mwcqrrcczvjsbnx",130,"20.csv","","null","resources/images/coin2.png","null","",NA,NA,NA,NA,""
"image-keyboard-response",497,409029,"0.0-3.162-0.162","mwcqrrcczvjsbnx",130,"20.csv","","308.59999999403954","resources/trios/L2T1A3.jpg","39","restless",0.4,0.5,0.4,0.090881061502438,"true"
"image-keyboard-response",498,409434,"0.0-3.162-1.162","mwcqrrcczvjsbnx",130,"20.csv","","null","resources/maskTrios/BBA3.jpg","null","",NA,NA,NA,NA,""
"image-keyboard-response",499,410641,"0.0-3.162-2.162","mwcqrrcczvjsbnx",130,"20.csv","","null","resources/images/coin2.png","null","",NA,NA,NA,NA,""
"image-keyboard-response",500,420391,"0.0-3.163-0.163","mwcqrrcczvjsbnx",130,"20.csv","","9748.09999999404","resources/trios/L1T2A2.jpg","37","restless",0.4,0.5,0.4,0.408089676094558,"false"
"image-keyboard-response",501,420799,"0.0-3.163-1.163","mwcqrrcczvjsbnx",130,"20.csv","","null","resources/maskTrios/L1BB.jpg","null","",NA,NA,NA,NA,""
"image-keyboard-response",502,422006,"0.0-3.163-2.163","mwcqrrcczvjsbnx",130,"20.csv","","null","resources/images/fishbone.png","null","",NA,NA,NA,NA,""
"image-keyboard-response",503,426830,"0.0-3.164-0.164","mwcqrrcczvjsbnx",130,"20.csv","","4822","resources/trios/L1T1A2.jpg","39","restless",0.4,0.6,0.4,0.333704267581084,"true"
"image-keyboard-response",504,427237,"0.0-3.164-1.164","mwcqrrcczvjsbnx",130,"20.csv","","null","resources/maskTrios/BBA2.jpg","null","",NA,NA,NA,NA,""
"image-keyboard-response",505,428444,"0.0-3.164-2.164","mwcqrrcczvjsbnx",130,"20.csv","","null","resources/images/coin2.png","null","",NA,NA,NA,NA,""
"image-keyboard-response",506,429170,"0.0-3.165-0.165","mwcqrrcczvjsbnx",130,"20.csv","","722.9000000059605","resources/trios/L2T1A3.jpg","39","restless",0.4,0.6,0.4,0.773947392301696,"false"
"image-keyboard-response",507,429577,"0.0-3.165-1.165","mwcqrrcczvjsbnx",130,"20.csv","","null","resources/maskTrios/BBA3.jpg","null","",NA,NA,NA,NA,""
"image-keyboard-response",508,430784,"0.0-3.165-2.165","mwcqrrcczvjsbnx",130,"20.csv","","null","resources/images/fishbone.png","null","",NA,NA,NA,NA,""
"image-keyboard-response",509,431134,"0.0-3.166-0.166","mwcqrrcczvjsbnx",130,"20.csv","","348.10000002384186","resources/trios/L2T2A3.jpg","38","restless",0.4,0.6,0.4,0.491536881517054,"true"
"image-keyboard-response",510,431541,"0.0-3.166-1.166","mwcqrrcczvjsbnx",130,"20.csv","","null","resources/maskTrios/BT2B.jpg","null","",NA,NA,NA,NA,""
"image-keyboard-response",511,432749,"0.0-3.166-2.166","mwcqrrcczvjsbnx",130,"20.csv","","null","resources/images/coin2.png","null","",NA,NA,NA,NA,""
"image-keyboard-response",512,433063,"0.0-3.167-0.167","mwcqrrcczvjsbnx",130,"20.csv","","311.59999999403954","resources/trios/L2T2A3.jpg","37","restless",0.4,0.6,0.4,0.232452247274886,"true"
"image-keyboard-response",513,433470,"0.0-3.167-1.167","mwcqrrcczvjsbnx",130,"20.csv","","null","resources/maskTrios/L2BB.jpg","null","",NA,NA,NA,NA,""
"image-keyboard-response",514,434675,"0.0-3.167-2.167","mwcqrrcczvjsbnx",130,"20.csv","","null","resources/images/coin2.png","null","",NA,NA,NA,NA,""
"image-keyboard-response",515,435027,"0.0-3.168-0.168","mwcqrrcczvjsbnx",130,"20.csv","","348.90000000596046","resources/trios/L1T1A2.jpg","39","restless",0.5,0.6,0.4,0.383280889641873,"true"
"image-keyboard-response",516,435434,"0.0-3.168-1.168","mwcqrrcczvjsbnx",130,"20.csv","","null","resources/maskTrios/BBA2.jpg","null","",NA,NA,NA,NA,""
"image-keyboard-response",517,436641,"0.0-3.168-2.168","mwcqrrcczvjsbnx",130,"20.csv","","null","resources/images/coin2.png","null","",NA,NA,NA,NA,""
"image-keyboard-response",518,436994,"0.0-3.169-0.169","mwcqrrcczvjsbnx",130,"20.csv","","350.80000001192093","resources/trios/L1T2A3.jpg","39","restless",0.5,0.6,0.4,0.588798640773904,"false"
"image-keyboard-response",519,437397,"0.0-3.169-1.169","mwcqrrcczvjsbnx",130,"20.csv","","null","resources/maskTrios/BBA3.jpg","null","",NA,NA,NA,NA,""
"image-keyboard-response",520,438602,"0.0-3.169-2.169","mwcqrrcczvjsbnx",130,"20.csv","","null","resources/images/fishbone.png","null","",NA,NA,NA,NA,""
"image-keyboard-response",521,438920,"0.0-3.170-0.170","mwcqrrcczvjsbnx",130,"20.csv","","316.5","resources/trios/L1T1A2.jpg","37","restless",0.5,0.6,0.4,0.948421969715659,"false"
"image-keyboard-response",522,439326,"0.0-3.170-1.170","mwcqrrcczvjsbnx",130,"20.csv","","null","resources/maskTrios/L1BB.jpg","null","",NA,NA,NA,NA,""
"image-keyboard-response",523,440530,"0.0-3.170-2.170","mwcqrrcczvjsbnx",130,"20.csv","","null","resources/images/fishbone.png","null","",NA,NA,NA,NA,""
"image-keyboard-response",524,440799,"0.0-3.171-0.171","mwcqrrcczvjsbnx",130,"20.csv","","267.2000000178814","resources/trios/L1T2A2.jpg","38","restless",0.5,0.6,0.3,0.0540849911751531,"true"
"image-keyboard-response",525,441206,"0.0-3.171-1.171","mwcqrrcczvjsbnx",130,"20.csv","","null","resources/maskTrios/BT2B.jpg","null","",NA,NA,NA,NA,""
"image-keyboard-response",526,442413,"0.0-3.171-2.171","mwcqrrcczvjsbnx",130,"20.csv","","null","resources/images/coin2.png","null","",NA,NA,NA,NA,""
"image-keyboard-response",527,442680,"0.0-3.172-0.172","mwcqrrcczvjsbnx",130,"20.csv","","265.5","resources/trios/L2T1A2.jpg","38","restless",0.5,0.6,0.3,0.6942905486293,"false"
"image-keyboard-response",528,443087,"0.0-3.172-1.172","mwcqrrcczvjsbnx",130,"20.csv","","null","resources/maskTrios/BT1B.jpg","null","",NA,NA,NA,NA,""
"image-keyboard-response",529,444294,"0.0-3.172-2.172","mwcqrrcczvjsbnx",130,"20.csv","","null","resources/images/fishbone.png","null","",NA,NA,NA,NA,""
"image-keyboard-response",530,444547,"0.0-3.173-0.173","mwcqrrcczvjsbnx",130,"20.csv","","251","resources/trios/L1T2A3.jpg","37","restless",0.5,0.6,0.3,0.431372499703387,"true"
"image-keyboard-response",531,444955,"0.0-3.173-1.173","mwcqrrcczvjsbnx",130,"20.csv","","null","resources/maskTrios/L1BB.jpg","null","",NA,NA,NA,NA,""
"image-keyboard-response",532,446160,"0.0-3.173-2.173","mwcqrrcczvjsbnx",130,"20.csv","","null","resources/images/coin2.png","null","",NA,NA,NA,NA,""
"image-keyboard-response",533,446531,"0.0-3.174-0.174","mwcqrrcczvjsbnx",130,"20.csv","","368.5","resources/trios/L1T1A2.jpg","37","restless",0.5,0.6,0.3,0.751721006658718,"false"
"image-keyboard-response",534,446938,"0.0-3.174-1.174","mwcqrrcczvjsbnx",130,"20.csv","","null","resources/maskTrios/L1BB.jpg","null","",NA,NA,NA,NA,""
"image-keyboard-response",535,448142,"0.0-3.174-2.174","mwcqrrcczvjsbnx",130,"20.csv","","null","resources/images/fishbone.png","null","",NA,NA,NA,NA,""
"image-keyboard-response",536,448319,"0.0-3.175-0.175","mwcqrrcczvjsbnx",130,"20.csv","","174.90000000596046","resources/trios/L1T2A3.jpg","38","restless",0.5,0.6,0.3,0.823369631800744,"false"
"image-keyboard-response",537,448725,"0.0-3.175-1.175","mwcqrrcczvjsbnx",130,"20.csv","","null","resources/maskTrios/BT2B.jpg","null","",NA,NA,NA,NA,""
"image-keyboard-response",538,449930,"0.0-3.175-2.175","mwcqrrcczvjsbnx",130,"20.csv","","null","resources/images/fishbone.png","null","",NA,NA,NA,NA,""
"image-keyboard-response",539,450444,"0.0-3.176-0.176","mwcqrrcczvjsbnx",130,"20.csv","","512.1000000238419","resources/trios/L2T2A3.jpg","37","restless",0.5,0.6,0.3,0.711613999925236,"false"
"image-keyboard-response",540,450852,"0.0-3.176-1.176","mwcqrrcczvjsbnx",130,"20.csv","","null","resources/maskTrios/L2BB.jpg","null","",NA,NA,NA,NA,""
"image-keyboard-response",541,452054,"0.0-3.176-2.176","mwcqrrcczvjsbnx",130,"20.csv","","null","resources/images/fishbone.png","null","",NA,NA,NA,NA,""
"image-keyboard-response",542,452434,"0.0-3.177-0.177","mwcqrrcczvjsbnx",130,"20.csv","","377.7000000178814","resources/trios/L2T1A3.jpg","38","restless",0.5,0.6,0.3,0.48742663943894,"true"
"image-keyboard-response",543,452838,"0.0-3.177-1.177","mwcqrrcczvjsbnx",130,"20.csv","","null","resources/maskTrios/BT1B.jpg","null","",NA,NA,NA,NA,""
"image-keyboard-response",544,454045,"0.0-3.177-2.177","mwcqrrcczvjsbnx",130,"20.csv","","null","resources/images/coin2.png","null","",NA,NA,NA,NA,""
"image-keyboard-response",545,454387,"0.0-3.178-0.178","mwcqrrcczvjsbnx",130,"20.csv","","339.80000001192093","resources/trios/L1T1A2.jpg","39","restless",0.6,0.6,0.3,0.663020220298653,"false"
"image-keyboard-response",546,454793,"0.0-3.178-1.178","mwcqrrcczvjsbnx",130,"20.csv","","null","resources/maskTrios/BBA2.jpg","null","",NA,NA,NA,NA,""
"image-keyboard-response",547,456000,"0.0-3.178-2.178","mwcqrrcczvjsbnx",130,"20.csv","","null","resources/images/fishbone.png","null","",NA,NA,NA,NA,""
"image-keyboard-response",548,456530,"0.0-3.179-0.179","mwcqrrcczvjsbnx",130,"20.csv","","527.5","resources/trios/L2T1A2.jpg","39","restless",0.6,0.6,0.3,0.852801980273759,"false"
"image-keyboard-response",549,456937,"0.0-3.179-1.179","mwcqrrcczvjsbnx",130,"20.csv","","null","resources/maskTrios/BBA2.jpg","null","",NA,NA,NA,NA,""
"image-keyboard-response",550,458144,"0.0-3.179-2.179","mwcqrrcczvjsbnx",130,"20.csv","","null","resources/images/fishbone.png","null","",NA,NA,NA,NA,""
"image-keyboard-response",551,458495,"0.0-3.180-0.180","mwcqrrcczvjsbnx",130,"20.csv","","348.69999998807907","resources/trios/L1T2A2.jpg","39","restless",0.6,0.6,0.3,0.14113951525872,"true"
"image-keyboard-response",552,458902,"0.0-3.180-1.180","mwcqrrcczvjsbnx",130,"20.csv","","null","resources/maskTrios/BBA2.jpg","null","",NA,NA,NA,NA,""
"image-keyboard-response",553,460110,"0.0-3.180-2.180","mwcqrrcczvjsbnx",130,"20.csv","","null","resources/images/coin2.png","null","",NA,NA,NA,NA,""
"image-keyboard-response",554,460419,"0.0-3.181-0.181","mwcqrrcczvjsbnx",130,"20.csv","","307.2999999821186","resources/trios/L2T2A2.jpg","39","restless",0.6,0.6,0.3,0.75489357862089,"false"
"image-keyboard-response",555,460825,"0.0-3.181-1.181","mwcqrrcczvjsbnx",130,"20.csv","","null","resources/maskTrios/BBA2.jpg","null","",NA,NA,NA,NA,""
"image-keyboard-response",556,462032,"0.0-3.181-2.181","mwcqrrcczvjsbnx",130,"20.csv","","null","resources/images/fishbone.png","null","",NA,NA,NA,NA,""
"image-keyboard-response",557,462372,"0.0-3.182-0.182","mwcqrrcczvjsbnx",130,"20.csv","","337.40000000596046","resources/trios/L2T1A3.jpg","38","restless",0.6,0.6,0.3,0.0690485356286217,"true"
"image-keyboard-response",558,462776,"0.0-3.182-1.182","mwcqrrcczvjsbnx",130,"20.csv","","null","resources/maskTrios/BT1B.jpg","null","",NA,NA,NA,NA,""
"image-keyboard-response",559,463982,"0.0-3.182-2.182","mwcqrrcczvjsbnx",130,"20.csv","","null","resources/images/coin2.png","null","",NA,NA,NA,NA,""
"image-keyboard-response",560,464885,"0.0-3.183-0.183","mwcqrrcczvjsbnx",130,"20.csv","","901","resources/trios/L1T2A3.jpg","37","restless",0.6,0.6,0.3,0.945591803147339,"false"
"image-keyboard-response",561,465292,"0.0-3.183-1.183","mwcqrrcczvjsbnx",130,"20.csv","","null","resources/maskTrios/L1BB.jpg","null","",NA,NA,NA,NA,""
"image-keyboard-response",562,466499,"0.0-3.183-2.183","mwcqrrcczvjsbnx",130,"20.csv","","null","resources/images/fishbone.png","null","",NA,NA,NA,NA,""
"image-keyboard-response",563,469899,"0.0-3.184-0.184","mwcqrrcczvjsbnx",130,"20.csv","","3398.199999988079","resources/trios/L1T2A3.jpg","38","restless",0.6,0.6,0.3,0.12303017764338,"true"
"image-keyboard-response",564,470303,"0.0-3.184-1.184","mwcqrrcczvjsbnx",130,"20.csv","","null","resources/maskTrios/BT2B.jpg","null","",NA,NA,NA,NA,""
"image-keyboard-response",565,471509,"0.0-3.184-2.184","mwcqrrcczvjsbnx",130,"20.csv","","null","resources/images/coin2.png","null","",NA,NA,NA,NA,""
"image-keyboard-response",566,476996,"0.0-3.185-0.185","mwcqrrcczvjsbnx",130,"20.csv","","5485.4000000059605","resources/trios/L2T2A2.jpg","39","restless",0.6,0.6,0.3,0.976940554487611,"false"
"image-keyboard-response",567,477400,"0.0-3.185-1.185","mwcqrrcczvjsbnx",130,"20.csv","","null","resources/maskTrios/BBA2.jpg","null","",NA,NA,NA,NA,""
"image-keyboard-response",568,478607,"0.0-3.185-2.185","mwcqrrcczvjsbnx",130,"20.csv","","null","resources/images/fishbone.png","null","",NA,NA,NA,NA,""
"image-keyboard-response",569,480019,"0.0-3.186-0.186","mwcqrrcczvjsbnx",130,"20.csv","","1410.4000000059605","resources/trios/L1T2A3.jpg","39","restless",0.6,0.6,0.3,0.0975532462993349,"true"
"image-keyboard-response",570,480425,"0.0-3.186-1.186","mwcqrrcczvjsbnx",130,"20.csv","","null","resources/maskTrios/BBA3.jpg","null","",NA,NA,NA,NA,""
"image-keyboard-response",571,481627,"0.0-3.186-2.186","mwcqrrcczvjsbnx",130,"20.csv","","null","resources/images/coin2.png","null","",NA,NA,NA,NA,""
"image-keyboard-response",572,485918,"0.0-3.187-0.187","mwcqrrcczvjsbnx",130,"20.csv","","4288.299999982119","resources/trios/L2T2A3.jpg","37","restless",0.6,0.5,0.3,0.920599629608834,"false"
"image-keyboard-response",573,486325,"0.0-3.187-1.187","mwcqrrcczvjsbnx",130,"20.csv","","null","resources/maskTrios/L2BB.jpg","null","",NA,NA,NA,NA,""
"image-keyboard-response",574,487532,"0.0-3.187-2.187","mwcqrrcczvjsbnx",130,"20.csv","","null","resources/images/fishbone.png","null","",NA,NA,NA,NA,""
"image-keyboard-response",575,491445,"0.0-3.188-0.188","mwcqrrcczvjsbnx",130,"20.csv","","3911.2000000178814","resources/trios/L2T1A3.jpg","39","restless",0.6,0.5,0.3,0.260754881459592,"true"
"image-keyboard-response",576,491853,"0.0-3.188-1.188","mwcqrrcczvjsbnx",130,"20.csv","","null","resources/maskTrios/BBA3.jpg","null","",NA,NA,NA,NA,""
"image-keyboard-response",577,493055,"0.0-3.188-2.188","mwcqrrcczvjsbnx",130,"20.csv","","null","resources/images/coin2.png","null","",NA,NA,NA,NA,""
"image-keyboard-response",578,493789,"0.0-3.189-0.189","mwcqrrcczvjsbnx",130,"20.csv","","730.9000000059605","resources/trios/L1T2A3.jpg","37","restless",0.6,0.5,0.3,0.417791276674873,"true"
"image-keyboard-response",579,494196,"0.0-3.189-1.189","mwcqrrcczvjsbnx",130,"20.csv","","null","resources/maskTrios/L1BB.jpg","null","",NA,NA,NA,NA,""
"image-keyboard-response",580,495403,"0.0-3.189-2.189","mwcqrrcczvjsbnx",130,"20.csv","","null","resources/images/coin2.png","null","",NA,NA,NA,NA,""
"image-keyboard-response",581,495912,"0.0-3.190-0.190","mwcqrrcczvjsbnx",130,"20.csv","","506.80000001192093","resources/trios/L1T2A3.jpg","38","restless",0.6,0.5,0.3,0.0906093601973219,"true"
"image-keyboard-response",582,496320,"0.0-3.190-1.190","mwcqrrcczvjsbnx",130,"20.csv","","null","resources/maskTrios/BT2B.jpg","null","",NA,NA,NA,NA,""
"image-keyboard-response",583,497524,"0.0-3.190-2.190","mwcqrrcczvjsbnx",130,"20.csv","","null","resources/images/coin2.png","null","",NA,NA,NA,NA,""
"image-keyboard-response",584,499360,"0.0-3.191-0.191","mwcqrrcczvjsbnx",130,"20.csv","","1833.2000000178814","resources/trios/L2T1A3.jpg","39","restless",0.6,0.6,0.3,0.335264268050965,"false"
"image-keyboard-response",585,499767,"0.0-3.191-1.191","mwcqrrcczvjsbnx",130,"20.csv","","null","resources/maskTrios/BBA3.jpg","null","",NA,NA,NA,NA,""
"image-keyboard-response",586,500974,"0.0-3.191-2.191","mwcqrrcczvjsbnx",130,"20.csv","","null","resources/images/fishbone.png","null","",NA,NA,NA,NA,""
"image-keyboard-response",587,501450,"0.0-3.192-0.192","mwcqrrcczvjsbnx",130,"20.csv","","473.39999997615814","resources/trios/L2T1A2.jpg","37","restless",0.6,0.6,0.3,0.913906135829014,"false"
"image-keyboard-response",588,501857,"0.0-3.192-1.192","mwcqrrcczvjsbnx",130,"20.csv","","null","resources/maskTrios/L2BB.jpg","null","",NA,NA,NA,NA,""
"image-keyboard-response",589,503061,"0.0-3.192-2.192","mwcqrrcczvjsbnx",130,"20.csv","","null","resources/images/fishbone.png","null","",NA,NA,NA,NA,""
"image-keyboard-response",590,504082,"0.0-3.193-0.193","mwcqrrcczvjsbnx",130,"20.csv","","1019.6999999880791","resources/trios/L1T2A2.jpg","38","restless",0.6,0.5,0.3,0.159628865509337,"true"
"image-keyboard-response",591,504490,"0.0-3.193-1.193","mwcqrrcczvjsbnx",130,"20.csv","","null","resources/maskTrios/BT2B.jpg","null","",NA,NA,NA,NA,""
"image-keyboard-response",592,505696,"0.0-3.193-2.193","mwcqrrcczvjsbnx",130,"20.csv","","null","resources/images/coin2.png","null","",NA,NA,NA,NA,""
"image-keyboard-response",593,509129,"0.0-3.194-0.194","mwcqrrcczvjsbnx",130,"20.csv","","3430.0999999940395","resources/trios/L1T1A3.jpg","39","restless",0.6,0.5,0.3,0.155375272576113,"true"
"image-keyboard-response",594,509533,"0.0-3.194-1.194","mwcqrrcczvjsbnx",130,"20.csv","","null","resources/maskTrios/BBA3.jpg","null","",NA,NA,NA,NA,""
"image-keyboard-response",595,510740,"0.0-3.194-2.194","mwcqrrcczvjsbnx",130,"20.csv","","null","resources/images/coin2.png","null","",NA,NA,NA,NA,""
"image-keyboard-response",596,590223,"0.0-3.195-0.195","mwcqrrcczvjsbnx",130,"20.csv","","79482","resources/trios/L2T2A2.jpg","38","restless",0.7,0.5,0.3,0.772332228753082,"false"
"image-keyboard-response",597,590629,"0.0-3.195-1.195","mwcqrrcczvjsbnx",130,"20.csv","","null","resources/maskTrios/BT2B.jpg","null","",NA,NA,NA,NA,""
"image-keyboard-response",598,591836,"0.0-3.195-2.195","mwcqrrcczvjsbnx",130,"20.csv","","null","resources/images/fishbone.png","null","",NA,NA,NA,NA,""
"image-keyboard-response",599,592382,"0.0-3.196-0.196","mwcqrrcczvjsbnx",130,"20.csv","","543.7999999821186","resources/trios/L2T2A3.jpg","39","restless",0.6,0.5,0.3,0.977724037685367,"false"
"image-keyboard-response",600,592790,"0.0-3.196-1.196","mwcqrrcczvjsbnx",130,"20.csv","","null","resources/maskTrios/BBA3.jpg","null","",NA,NA,NA,NA,""
"image-keyboard-response",601,593992,"0.0-3.196-2.196","mwcqrrcczvjsbnx",130,"20.csv","","null","resources/images/fishbone.png","null","",NA,NA,NA,NA,""
"image-keyboard-response",602,594429,"0.0-3.197-0.197","mwcqrrcczvjsbnx",130,"20.csv","","434.59999999403954","resources/trios/L2T1A2.jpg","39","restless",0.6,0.5,0.3,0.0452801082413401,"true"
"image-keyboard-response",603,594837,"0.0-3.197-1.197","mwcqrrcczvjsbnx",130,"20.csv","","null","resources/maskTrios/BBA2.jpg","null","",NA,NA,NA,NA,""
"image-keyboard-response",604,596044,"0.0-3.197-2.197","mwcqrrcczvjsbnx",130,"20.csv","","null","resources/images/coin2.png","null","",NA,NA,NA,NA,""
"image-keyboard-response",605,602923,"0.0-3.198-0.198","mwcqrrcczvjsbnx",130,"20.csv","","6876.699999988079","resources/trios/L2T1A3.jpg","37","restless",0.6,0.6,0.3,0.34138996263681,"true"
"image-keyboard-response",606,603328,"0.0-3.198-1.198","mwcqrrcczvjsbnx",130,"20.csv","","null","resources/maskTrios/L2BB.jpg","null","",NA,NA,NA,NA,""
"image-keyboard-response",607,604531,"0.0-3.198-2.198","mwcqrrcczvjsbnx",130,"20.csv","","null","resources/images/coin2.png","null","",NA,NA,NA,NA,""
"image-keyboard-response",608,609008,"0.0-3.199-0.199","mwcqrrcczvjsbnx",130,"20.csv","","4474.300000011921","resources/trios/L1T2A3.jpg","39","restless",0.6,0.6,0.3,0.689448829012696,"false"
"image-keyboard-response",609,609413,"0.0-3.199-1.199","mwcqrrcczvjsbnx",130,"20.csv","","null","resources/maskTrios/BBA3.jpg","null","",NA,NA,NA,NA,""
