"trial_type","trial_index","time_elapsed","internal_node_id","subject","participantCode","walkNumber","success","rt","stimulus","key_press","test_part","leftProb","midProb","rightProb","generatedNum","correct"
"pavlovia",0,1032,"0.0-0.0","2dsp70rgztke380",658,"163.csv","","","","","",NA,NA,NA,NA,""
"fullscreen",1,4815,"0.0-1.0","2dsp70rgztke380",658,"163.csv","true","","","","",NA,NA,NA,NA,""
"html-keyboard-response",2,15606,"0.0-2.0-0.0","2dsp70rgztke380",658,"163.csv","","10788.600000023842","<p><font size='6'>Arrrgh!</p></font><p>Can you be the best pirate? Try to find lots of gold! But beware, some islands have more gold than others, and over time, the island with the most gold may change. Can YOU figure it out? </p><font size='6'>GOOD LUCK, CAPTAIN!!!</font><p>Press any key to begin</p>","32","",NA,NA,NA,NA,""
"image-keyboard-response",3,18614,"0.0-2.0-1.0","2dsp70rgztke380",658,"163.csv","","null","resources/image_sets/111.png","null","",NA,NA,NA,NA,""
"image-keyboard-response",4,22577,"0.0-2.0-2.0","2dsp70rgztke380",658,"163.csv","","3961.300000011921","resources/image_sets/left_highlight.png","37","",NA,NA,NA,NA,""
"image-keyboard-response",5,23945,"0.0-2.0-3.0","2dsp70rgztke380",658,"163.csv","","1365.5","resources/image_sets/mid_highlight.png","38","",NA,NA,NA,NA,""
"image-keyboard-response",6,24373,"0.0-2.0-4.0","2dsp70rgztke380",658,"163.csv","","426.10000002384186","resources/image_sets/right_highlight.png","39","",NA,NA,NA,NA,""
"image-keyboard-response",7,29350,"0.0-2.0-5.0","2dsp70rgztke380",658,"163.csv","","4975.400000035763","resources/image_sets/111.png","13","",NA,NA,NA,NA,""
"image-keyboard-response",8,32714,"0.0-2.0-6.0","2dsp70rgztke380",658,"163.csv","","3363.099999964237","resources/images/coin2.png","13","",NA,NA,NA,NA,""
"image-keyboard-response",9,35690,"0.0-2.0-7.0","2dsp70rgztke380",658,"163.csv","","2973.199999988079","resources/images/fishbone.png","13","",NA,NA,NA,NA,""
"html-keyboard-response",10,40047,"0.0-2.0-8.0","2dsp70rgztke380",658,"163.csv","","4355.599999964237","<p>Your first journey will be a long one, but you will get a well deserved break at the end</p><p>After the break you will have four more journeys, but each will be much shorter than the first, and you will have breaks in between each</p><p>Press Enter to begin</p>","13","",NA,NA,NA,NA,""
"image-keyboard-response",11,41688,"0.0-3.0-0.0","2dsp70rgztke380",658,"163.csv","","1637.6000000238419","resources/trios/L1T4A2.jpg","37","restless",0.3,0.9,0.7,0.87976437259953,"false"
"image-keyboard-response",12,42096,"0.0-3.0-1.0","2dsp70rgztke380",658,"163.csv","","null","resources/maskTrios/L1BB.jpg","null","",NA,NA,NA,NA,""
"image-keyboard-response",13,43304,"0.0-3.0-2.0","2dsp70rgztke380",658,"163.csv","","null","resources/images/fishbone.png","null","",NA,NA,NA,NA,""
"image-keyboard-response",14,44050,"0.0-3.1-0.1","2dsp70rgztke380",658,"163.csv","","743.7000000476837","resources/trios/L2T4A1.jpg","38","restless",0.4,0.9,0.7,0.141699691999815,"true"
"image-keyboard-response",15,44456,"0.0-3.1-1.1","2dsp70rgztke380",658,"163.csv","","null","resources/maskTrios/BT4B.jpg","null","",NA,NA,NA,NA,""
"image-keyboard-response",16,45663,"0.0-3.1-2.1","2dsp70rgztke380",658,"163.csv","","null","resources/images/coin2.png","null","",NA,NA,NA,NA,""
"image-keyboard-response",17,46334,"0.0-3.2-0.2","2dsp70rgztke380",658,"163.csv","","668.8000000119209","resources/trios/L1T2A2.jpg","39","restless",0.4,0.8,0.7,0.637929505416223,"true"
"image-keyboard-response",18,46742,"0.0-3.2-1.2","2dsp70rgztke380",658,"163.csv","","null","resources/maskTrios/BBA2.jpg","null","",NA,NA,NA,NA,""
"image-keyboard-response",19,47949,"0.0-3.2-2.2","2dsp70rgztke380",658,"163.csv","","null","resources/images/coin2.png","null","",NA,NA,NA,NA,""
"image-keyboard-response",20,50653,"0.0-3.3-0.3","2dsp70rgztke380",658,"163.csv","","2701.5","resources/trios/L2T2A2.jpg","38","restless",0.4,0.8,0.7,0.936564536436028,"false"
"image-keyboard-response",21,51061,"0.0-3.3-1.3","2dsp70rgztke380",658,"163.csv","","null","resources/maskTrios/BT2B.jpg","null","",NA,NA,NA,NA,""
"image-keyboard-response",22,52267,"0.0-3.3-2.3","2dsp70rgztke380",658,"163.csv","","null","resources/images/fishbone.png","null","",NA,NA,NA,NA,""
"image-keyboard-response",23,52759,"0.0-3.4-0.4","2dsp70rgztke380",658,"163.csv","","489.80000001192093","resources/trios/L2T2A1.jpg","37","restless",0.4,0.8,0.7,0.162074741884457,"true"
"image-keyboard-response",24,53167,"0.0-3.4-1.4","2dsp70rgztke380",658,"163.csv","","null","resources/maskTrios/L2BB.jpg","null","",NA,NA,NA,NA,""
"image-keyboard-response",25,54374,"0.0-3.4-2.4","2dsp70rgztke380",658,"163.csv","","null","resources/images/coin2.png","null","",NA,NA,NA,NA,""
"image-keyboard-response",26,54657,"0.0-3.5-0.5","2dsp70rgztke380",658,"163.csv","","280.89999997615814","resources/trios/L2T2A2.jpg","39","restless",0.4,0.8,0.7,0.768293314857084,"false"
"image-keyboard-response",27,55064,"0.0-3.5-1.5","2dsp70rgztke380",658,"163.csv","","null","resources/maskTrios/BBA2.jpg","null","",NA,NA,NA,NA,""
"image-keyboard-response",28,56267,"0.0-3.5-2.5","2dsp70rgztke380",658,"163.csv","","null","resources/images/fishbone.png","null","",NA,NA,NA,NA,""
"image-keyboard-response",29,57754,"0.0-3.6-0.6","2dsp70rgztke380",658,"163.csv","","1484.5","resources/trios/L2T4A2.jpg","38","restless",0.4,0.8,0.7,0.0299254693646291,"true"
"image-keyboard-response",30,58158,"0.0-3.6-1.6","2dsp70rgztke380",658,"163.csv","","null","resources/maskTrios/BT4B.jpg","null","",NA,NA,NA,NA,""
"image-keyboard-response",31,59365,"0.0-3.6-2.6","2dsp70rgztke380",658,"163.csv","","null","resources/images/coin2.png","null","",NA,NA,NA,NA,""
"image-keyboard-response",32,59710,"0.0-3.7-0.7","2dsp70rgztke380",658,"163.csv","","342.80000001192093","resources/trios/L1T4A2.jpg","39","restless",0.4,0.8,0.6,0.337321055534882,"true"
"image-keyboard-response",33,60117,"0.0-3.7-1.7","2dsp70rgztke380",658,"163.csv","","null","resources/maskTrios/BBA2.jpg","null","",NA,NA,NA,NA,""
"image-keyboard-response",34,61323,"0.0-3.7-2.7","2dsp70rgztke380",658,"163.csv","","null","resources/images/coin2.png","null","",NA,NA,NA,NA,""
"image-keyboard-response",35,61639,"0.0-3.8-0.8","2dsp70rgztke380",658,"163.csv","","313.5","resources/trios/L2T4A2.jpg","37","restless",0.4,0.8,0.6,0.700916319358239,"false"
"image-keyboard-response",36,62044,"0.0-3.8-1.8","2dsp70rgztke380",658,"163.csv","","null","resources/maskTrios/L2BB.jpg","null","",NA,NA,NA,NA,""
"image-keyboard-response",37,63251,"0.0-3.8-2.8","2dsp70rgztke380",658,"163.csv","","null","resources/images/fishbone.png","null","",NA,NA,NA,NA,""
"image-keyboard-response",38,63675,"0.0-3.9-0.9","2dsp70rgztke380",658,"163.csv","","421.39999997615814","resources/trios/L1T2A2.jpg","38","restless",0.4,0.8,0.6,0.693534508016582,"true"
"image-keyboard-response",39,64079,"0.0-3.9-1.9","2dsp70rgztke380",658,"163.csv","","null","resources/maskTrios/BT2B.jpg","null","",NA,NA,NA,NA,""
"image-keyboard-response",40,65286,"0.0-3.9-2.9","2dsp70rgztke380",658,"163.csv","","null","resources/images/coin2.png","null","",NA,NA,NA,NA,""
"image-keyboard-response",41,65600,"0.0-3.10-0.10","2dsp70rgztke380",658,"163.csv","","312.5","resources/trios/L1T4A1.jpg","39","restless",0.4,0.8,0.6,0.351341433161104,"true"
"image-keyboard-response",42,66004,"0.0-3.10-1.10","2dsp70rgztke380",658,"163.csv","","null","resources/maskTrios/BBA1.jpg","null","",NA,NA,NA,NA,""
"image-keyboard-response",43,67210,"0.0-3.10-2.10","2dsp70rgztke380",658,"163.csv","","null","resources/images/coin2.png","null","",NA,NA,NA,NA,""
"image-keyboard-response",44,69083,"0.0-3.11-0.11","2dsp70rgztke380",658,"163.csv","","1870.8999999761581","resources/trios/L2T2A2.jpg","38","restless",0.5,0.8,0.6,0.487768260247706,"true"
"image-keyboard-response",45,69488,"0.0-3.11-1.11","2dsp70rgztke380",658,"163.csv","","null","resources/maskTrios/BT2B.jpg","null","",NA,NA,NA,NA,""
"image-keyboard-response",46,70695,"0.0-3.11-2.11","2dsp70rgztke380",658,"163.csv","","null","resources/images/coin2.png","null","",NA,NA,NA,NA,""
"image-keyboard-response",47,71030,"0.0-3.12-0.12","2dsp70rgztke380",658,"163.csv","","333.2000000476837","resources/trios/L1T2A1.jpg","38","restless",0.5,0.8,0.6,0.4888148477243,"true"
"image-keyboard-response",48,71437,"0.0-3.12-1.12","2dsp70rgztke380",658,"163.csv","","null","resources/maskTrios/BT2B.jpg","null","",NA,NA,NA,NA,""
"image-keyboard-response",49,72642,"0.0-3.12-2.12","2dsp70rgztke380",658,"163.csv","","null","resources/images/coin2.png","null","",NA,NA,NA,NA,""
"image-keyboard-response",50,72977,"0.0-3.13-0.13","2dsp70rgztke380",658,"163.csv","","332.69999998807907","resources/trios/L2T2A2.jpg","38","restless",0.5,0.8,0.6,0.542099649732271,"true"
"image-keyboard-response",51,73379,"0.0-3.13-1.13","2dsp70rgztke380",658,"163.csv","","null","resources/maskTrios/BT2B.jpg","null","",NA,NA,NA,NA,""
"image-keyboard-response",52,74587,"0.0-3.13-2.13","2dsp70rgztke380",658,"163.csv","","null","resources/images/coin2.png","null","",NA,NA,NA,NA,""
"image-keyboard-response",53,74937,"0.0-3.14-0.14","2dsp70rgztke380",658,"163.csv","","347.89999997615814","resources/trios/L2T4A1.jpg","38","restless",0.5,0.8,0.6,0.238074103211204,"true"
"image-keyboard-response",54,75343,"0.0-3.14-1.14","2dsp70rgztke380",658,"163.csv","","null","resources/maskTrios/BT4B.jpg","null","",NA,NA,NA,NA,""
"image-keyboard-response",55,76546,"0.0-3.14-2.14","2dsp70rgztke380",658,"163.csv","","null","resources/images/coin2.png","null","",NA,NA,NA,NA,""
"image-keyboard-response",56,76899,"0.0-3.15-0.15","2dsp70rgztke380",658,"163.csv","","350.19999998807907","resources/trios/L1T2A1.jpg","38","restless",0.5,0.7,0.6,0.40947155688816,"true"
"image-keyboard-response",57,77306,"0.0-3.15-1.15","2dsp70rgztke380",658,"163.csv","","null","resources/maskTrios/BT2B.jpg","null","",NA,NA,NA,NA,""
"image-keyboard-response",58,78510,"0.0-3.15-2.15","2dsp70rgztke380",658,"163.csv","","null","resources/images/coin2.png","null","",NA,NA,NA,NA,""
"image-keyboard-response",59,78875,"0.0-3.16-0.16","2dsp70rgztke380",658,"163.csv","","363.39999997615814","resources/trios/L2T4A1.jpg","38","restless",0.5,0.7,0.6,0.784506714916904,"false"
"image-keyboard-response",60,79283,"0.0-3.16-1.16","2dsp70rgztke380",658,"163.csv","","null","resources/maskTrios/BT4B.jpg","null","",NA,NA,NA,NA,""
"image-keyboard-response",61,80489,"0.0-3.16-2.16","2dsp70rgztke380",658,"163.csv","","null","resources/images/fishbone.png","null","",NA,NA,NA,NA,""
"image-keyboard-response",62,81161,"0.0-3.17-0.17","2dsp70rgztke380",658,"163.csv","","669.7999999523163","resources/trios/L2T2A2.jpg","37","restless",0.5,0.6,0.6,0.970859126863526,"false"
"image-keyboard-response",63,81568,"0.0-3.17-1.17","2dsp70rgztke380",658,"163.csv","","null","resources/maskTrios/L2BB.jpg","null","",NA,NA,NA,NA,""
"image-keyboard-response",64,82775,"0.0-3.17-2.17","2dsp70rgztke380",658,"163.csv","","null","resources/images/fishbone.png","null","",NA,NA,NA,NA,""
"image-keyboard-response",65,83028,"0.0-3.18-0.18","2dsp70rgztke380",658,"163.csv","","251.79999995231628","resources/trios/L1T4A2.jpg","39","restless",0.5,0.6,0.6,0.82436852323593,"false"
"image-keyboard-response",66,83434,"0.0-3.18-1.18","2dsp70rgztke380",658,"163.csv","","null","resources/maskTrios/BBA2.jpg","null","",NA,NA,NA,NA,""
"image-keyboard-response",67,84641,"0.0-3.18-2.18","2dsp70rgztke380",658,"163.csv","","null","resources/images/fishbone.png","null","",NA,NA,NA,NA,""
"image-keyboard-response",68,84833,"0.0-3.19-0.19","2dsp70rgztke380",658,"163.csv","","190.30000001192093","resources/trios/L1T2A2.jpg","38","restless",0.5,0.6,0.6,0.595718182245695,"true"
"image-keyboard-response",69,85238,"0.0-3.19-1.19","2dsp70rgztke380",658,"163.csv","","null","resources/maskTrios/BT2B.jpg","null","",NA,NA,NA,NA,""
"image-keyboard-response",70,86445,"0.0-3.19-2.19","2dsp70rgztke380",658,"163.csv","","null","resources/images/coin2.png","null","",NA,NA,NA,NA,""
"image-keyboard-response",71,86676,"0.0-3.20-0.20","2dsp70rgztke380",658,"163.csv","","229.4000000357628","resources/trios/L1T4A1.jpg","38","restless",0.5,0.6,0.6,0.717991216559517,"false"
"image-keyboard-response",72,87082,"0.0-3.20-1.20","2dsp70rgztke380",658,"163.csv","","null","resources/maskTrios/BT4B.jpg","null","",NA,NA,NA,NA,""
"image-keyboard-response",73,88288,"0.0-3.20-2.20","2dsp70rgztke380",658,"163.csv","","null","resources/images/fishbone.png","null","",NA,NA,NA,NA,""
"image-keyboard-response",74,88596,"0.0-3.21-0.21","2dsp70rgztke380",658,"163.csv","","305.69999998807907","resources/trios/L2T4A1.jpg","37","restless",0.5,0.5,0.6,0.0774441181255283,"true"
"image-keyboard-response",75,89003,"0.0-3.21-1.21","2dsp70rgztke380",658,"163.csv","","null","resources/maskTrios/L2BB.jpg","null","",NA,NA,NA,NA,""
"image-keyboard-response",76,90209,"0.0-3.21-2.21","2dsp70rgztke380",658,"163.csv","","null","resources/images/coin2.png","null","",NA,NA,NA,NA,""
"image-keyboard-response",77,90425,"0.0-3.22-0.22","2dsp70rgztke380",658,"163.csv","","213.60000002384186","resources/trios/L2T2A2.jpg","37","restless",0.5,0.5,0.6,0.449691768104425,"true"
"image-keyboard-response",78,90831,"0.0-3.22-1.22","2dsp70rgztke380",658,"163.csv","","null","resources/maskTrios/L2BB.jpg","null","",NA,NA,NA,NA,""
"image-keyboard-response",79,92037,"0.0-3.22-2.22","2dsp70rgztke380",658,"163.csv","","null","resources/images/coin2.png","null","",NA,NA,NA,NA,""
"image-keyboard-response",80,95998,"0.0-3.23-0.23","2dsp70rgztke380",658,"163.csv","","3958.800000011921","resources/trios/L2T2A1.jpg","37","restless",0.5,0.5,0.6,0.86119104529097,"false"
"image-keyboard-response",81,96402,"0.0-3.23-1.23","2dsp70rgztke380",658,"163.csv","","null","resources/maskTrios/L2BB.jpg","null","",NA,NA,NA,NA,""
"image-keyboard-response",82,97604,"0.0-3.23-2.23","2dsp70rgztke380",658,"163.csv","","null","resources/images/fishbone.png","null","",NA,NA,NA,NA,""
"image-keyboard-response",83,97911,"0.0-3.24-0.24","2dsp70rgztke380",658,"163.csv","","304.30000001192093","resources/trios/L1T2A2.jpg","39","restless",0.5,0.5,0.6,0.932661319861318,"false"
"image-keyboard-response",84,98318,"0.0-3.24-1.24","2dsp70rgztke380",658,"163.csv","","null","resources/maskTrios/BBA2.jpg","null","",NA,NA,NA,NA,""
"image-keyboard-response",85,99520,"0.0-3.24-2.24","2dsp70rgztke380",658,"163.csv","","null","resources/images/fishbone.png","null","",NA,NA,NA,NA,""
"image-keyboard-response",86,99831,"0.0-3.25-0.25","2dsp70rgztke380",658,"163.csv","","309.5","resources/trios/L2T4A1.jpg","38","restless",0.5,0.5,0.6,0.0196154232427865,"true"
"image-keyboard-response",87,100236,"0.0-3.25-1.25","2dsp70rgztke380",658,"163.csv","","null","resources/maskTrios/BT4B.jpg","null","",NA,NA,NA,NA,""
"image-keyboard-response",88,101442,"0.0-3.25-2.25","2dsp70rgztke380",658,"163.csv","","null","resources/images/coin2.png","null","",NA,NA,NA,NA,""
"image-keyboard-response",89,101615,"0.0-3.26-0.26","2dsp70rgztke380",658,"163.csv","","171.19999998807907","resources/trios/L1T4A2.jpg","38","restless",0.5,0.5,0.6,0.0832237338826942,"true"
"image-keyboard-response",90,102022,"0.0-3.26-1.26","2dsp70rgztke380",658,"163.csv","","null","resources/maskTrios/BT4B.jpg","null","",NA,NA,NA,NA,""
"image-keyboard-response",91,103226,"0.0-3.26-2.26","2dsp70rgztke380",658,"163.csv","","null","resources/images/coin2.png","null","",NA,NA,NA,NA,""
"image-keyboard-response",92,103531,"0.0-3.27-0.27","2dsp70rgztke380",658,"163.csv","","302.7000000476837","resources/trios/L1T4A2.jpg","38","restless",0.5,0.5,0.5,0.824006629682212,"false"
"image-keyboard-response",93,103935,"0.0-3.27-1.27","2dsp70rgztke380",658,"163.csv","","null","resources/maskTrios/BT4B.jpg","null","",NA,NA,NA,NA,""
"image-keyboard-response",94,105141,"0.0-3.27-2.27","2dsp70rgztke380",658,"163.csv","","null","resources/images/fishbone.png","null","",NA,NA,NA,NA,""
"image-keyboard-response",95,106236,"0.0-3.28-0.28","2dsp70rgztke380",658,"163.csv","","1092.3999999761581","resources/trios/L2T2A1.jpg","38","restless",0.5,0.5,0.5,0.804937212824585,"false"
"image-keyboard-response",96,106643,"0.0-3.28-1.28","2dsp70rgztke380",658,"163.csv","","null","resources/maskTrios/BT2B.jpg","null","",NA,NA,NA,NA,""
"image-keyboard-response",97,107849,"0.0-3.28-2.28","2dsp70rgztke380",658,"163.csv","","null","resources/images/fishbone.png","null","",NA,NA,NA,NA,""
"image-keyboard-response",98,108154,"0.0-3.29-0.29","2dsp70rgztke380",658,"163.csv","","303.19999998807907","resources/trios/L2T2A2.jpg","38","restless",0.5,0.5,0.5,0.931325524186433,"false"
"image-keyboard-response",99,108560,"0.0-3.29-1.29","2dsp70rgztke380",658,"163.csv","","null","resources/maskTrios/BT2B.jpg","null","",NA,NA,NA,NA,""
"image-keyboard-response",100,109767,"0.0-3.29-2.29","2dsp70rgztke380",658,"163.csv","","null","resources/images/fishbone.png","null","",NA,NA,NA,NA,""
"image-keyboard-response",101,110156,"0.0-3.30-0.30","2dsp70rgztke380",658,"163.csv","","387.30000001192093","resources/trios/L1T2A1.jpg","37","restless",0.5,0.5,0.5,0.204066633964686,"true"
"image-keyboard-response",102,110563,"0.0-3.30-1.30","2dsp70rgztke380",658,"163.csv","","null","resources/maskTrios/L1BB.jpg","null","",NA,NA,NA,NA,""
"image-keyboard-response",103,111767,"0.0-3.30-2.30","2dsp70rgztke380",658,"163.csv","","null","resources/images/coin2.png","null","",NA,NA,NA,NA,""
"image-keyboard-response",104,112005,"0.0-3.31-0.31","2dsp70rgztke380",658,"163.csv","","236.80000001192093","resources/trios/L1T4A2.jpg","38","restless",0.5,0.5,0.5,0.373931306182769,"true"
"image-keyboard-response",105,112412,"0.0-3.31-1.31","2dsp70rgztke380",658,"163.csv","","null","resources/maskTrios/BT4B.jpg","null","",NA,NA,NA,NA,""
"image-keyboard-response",106,113619,"0.0-3.31-2.31","2dsp70rgztke380",658,"163.csv","","null","resources/images/coin2.png","null","",NA,NA,NA,NA,""
"image-keyboard-response",107,113874,"0.0-3.32-0.32","2dsp70rgztke380",658,"163.csv","","253.20000004768372","resources/trios/L1T4A2.jpg","38","restless",0.5,0.5,0.5,0.865633468722949,"false"
"image-keyboard-response",108,114281,"0.0-3.32-1.32","2dsp70rgztke380",658,"163.csv","","null","resources/maskTrios/BT4B.jpg","null","",NA,NA,NA,NA,""
"image-keyboard-response",109,115488,"0.0-3.32-2.32","2dsp70rgztke380",658,"163.csv","","null","resources/images/fishbone.png","null","",NA,NA,NA,NA,""
"image-keyboard-response",110,116276,"0.0-3.33-0.33","2dsp70rgztke380",658,"163.csv","","785.9000000357628","resources/trios/L1T4A1.jpg","39","restless",0.5,0.5,0.5,0.39907799306956,"true"
"image-keyboard-response",111,116682,"0.0-3.33-1.33","2dsp70rgztke380",658,"163.csv","","null","resources/maskTrios/BBA1.jpg","null","",NA,NA,NA,NA,""
"image-keyboard-response",112,117889,"0.0-3.33-2.33","2dsp70rgztke380",658,"163.csv","","null","resources/images/coin2.png","null","",NA,NA,NA,NA,""
"image-keyboard-response",113,118445,"0.0-3.34-0.34","2dsp70rgztke380",658,"163.csv","","554.3000000119209","resources/trios/L2T4A1.jpg","39","restless",0.5,0.5,0.5,0.251122452976982,"true"
"image-keyboard-response",114,118849,"0.0-3.34-1.34","2dsp70rgztke380",658,"163.csv","","null","resources/maskTrios/BBA1.jpg","null","",NA,NA,NA,NA,""
"image-keyboard-response",115,120053,"0.0-3.34-2.34","2dsp70rgztke380",658,"163.csv","","null","resources/images/coin2.png","null","",NA,NA,NA,NA,""
"image-keyboard-response",116,120840,"0.0-3.35-0.35","2dsp70rgztke380",658,"163.csv","","785","resources/trios/L1T4A2.jpg","37","restless",0.5,0.5,0.5,0.60188181273282,"false"
"image-keyboard-response",117,121247,"0.0-3.35-1.35","2dsp70rgztke380",658,"163.csv","","null","resources/maskTrios/L1BB.jpg","null","",NA,NA,NA,NA,""
"image-keyboard-response",118,122453,"0.0-3.35-2.35","2dsp70rgztke380",658,"163.csv","","null","resources/images/fishbone.png","null","",NA,NA,NA,NA,""
"image-keyboard-response",119,122983,"0.0-3.36-0.36","2dsp70rgztke380",658,"163.csv","","528.5999999642372","resources/trios/L2T2A1.jpg","38","restless",0.6,0.5,0.5,0.00690093634662858,"true"
"image-keyboard-response",120,123390,"0.0-3.36-1.36","2dsp70rgztke380",658,"163.csv","","null","resources/maskTrios/BT2B.jpg","null","",NA,NA,NA,NA,""
"image-keyboard-response",121,124597,"0.0-3.36-2.36","2dsp70rgztke380",658,"163.csv","","null","resources/images/coin2.png","null","",NA,NA,NA,NA,""
"image-keyboard-response",122,125009,"0.0-3.37-0.37","2dsp70rgztke380",658,"163.csv","","410.19999998807907","resources/trios/L1T2A2.jpg","38","restless",0.6,0.5,0.5,0.112693671598344,"true"
"image-keyboard-response",123,125414,"0.0-3.37-1.37","2dsp70rgztke380",658,"163.csv","","null","resources/maskTrios/BT2B.jpg","null","",NA,NA,NA,NA,""
"image-keyboard-response",124,126620,"0.0-3.37-2.37","2dsp70rgztke380",658,"163.csv","","null","resources/images/coin2.png","null","",NA,NA,NA,NA,""
"image-keyboard-response",125,126882,"0.0-3.38-0.38","2dsp70rgztke380",658,"163.csv","","259.69999998807907","resources/trios/L1T4A2.jpg","38","restless",0.6,0.5,0.5,0.0764620750957492,"true"
"image-keyboard-response",126,127289,"0.0-3.38-1.38","2dsp70rgztke380",658,"163.csv","","null","resources/maskTrios/BT4B.jpg","null","",NA,NA,NA,NA,""
"image-keyboard-response",127,128492,"0.0-3.38-2.38","2dsp70rgztke380",658,"163.csv","","null","resources/images/coin2.png","null","",NA,NA,NA,NA,""
"image-keyboard-response",128,128693,"0.0-3.39-0.39","2dsp70rgztke380",658,"163.csv","","199.30000001192093","resources/trios/L2T2A1.jpg","39","restless",0.7,0.5,0.5,0.503239296212431,"false"
"image-keyboard-response",129,129100,"0.0-3.39-1.39","2dsp70rgztke380",658,"163.csv","","null","resources/maskTrios/BBA1.jpg","null","",NA,NA,NA,NA,""
"image-keyboard-response",130,130302,"0.0-3.39-2.39","2dsp70rgztke380",658,"163.csv","","null","resources/images/fishbone.png","null","",NA,NA,NA,NA,""
"image-keyboard-response",131,130644,"0.0-3.40-0.40","2dsp70rgztke380",658,"163.csv","","339.4000000357628","resources/trios/L1T4A2.jpg","38","restless",0.7,0.5,0.5,0.218203412388737,"true"
"image-keyboard-response",132,131048,"0.0-3.40-1.40","2dsp70rgztke380",658,"163.csv","","null","resources/maskTrios/BT4B.jpg","null","",NA,NA,NA,NA,""
"image-keyboard-response",133,132250,"0.0-3.40-2.40","2dsp70rgztke380",658,"163.csv","","null","resources/images/coin2.png","null","",NA,NA,NA,NA,""
"image-keyboard-response",134,132653,"0.0-3.41-0.41","2dsp70rgztke380",658,"163.csv","","400","resources/trios/L1T4A1.jpg","38","restless",0.7,0.5,0.5,0.713821159789726,"false"
"image-keyboard-response",135,133059,"0.0-3.41-1.41","2dsp70rgztke380",658,"163.csv","","null","resources/maskTrios/BT4B.jpg","null","",NA,NA,NA,NA,""
"image-keyboard-response",136,134262,"0.0-3.41-2.41","2dsp70rgztke380",658,"163.csv","","null","resources/images/fishbone.png","null","",NA,NA,NA,NA,""
"image-keyboard-response",137,134992,"0.0-3.42-0.42","2dsp70rgztke380",658,"163.csv","","727.6000000238419","resources/trios/L2T2A2.jpg","37","restless",0.7,0.5,0.5,0.689763010716329,"true"
"image-keyboard-response",138,135399,"0.0-3.42-1.42","2dsp70rgztke380",658,"163.csv","","null","resources/maskTrios/L2BB.jpg","null","",NA,NA,NA,NA,""
"image-keyboard-response",139,136606,"0.0-3.42-2.42","2dsp70rgztke380",658,"163.csv","","null","resources/images/coin2.png","null","",NA,NA,NA,NA,""
"image-keyboard-response",140,137296,"0.0-3.43-0.43","2dsp70rgztke380",658,"163.csv","","688.5999999642372","resources/trios/L2T4A1.jpg","38","restless",0.7,0.5,0.5,0.219365642623312,"true"
"image-keyboard-response",141,137703,"0.0-3.43-1.43","2dsp70rgztke380",658,"163.csv","","null","resources/maskTrios/BT4B.jpg","null","",NA,NA,NA,NA,""
"image-keyboard-response",142,138909,"0.0-3.43-2.43","2dsp70rgztke380",658,"163.csv","","null","resources/images/coin2.png","null","",NA,NA,NA,NA,""
"image-keyboard-response",143,139638,"0.0-3.44-0.44","2dsp70rgztke380",658,"163.csv","","726.8000000119209","resources/trios/L1T2A1.jpg","37","restless",0.7,0.5,0.5,0.348948276068295,"true"
"image-keyboard-response",144,140043,"0.0-3.44-1.44","2dsp70rgztke380",658,"163.csv","","null","resources/maskTrios/L1BB.jpg","null","",NA,NA,NA,NA,""
"image-keyboard-response",145,141250,"0.0-3.44-2.44","2dsp70rgztke380",658,"163.csv","","null","resources/images/coin2.png","null","",NA,NA,NA,NA,""
"image-keyboard-response",146,141575,"0.0-3.45-0.45","2dsp70rgztke380",658,"163.csv","","323.19999998807907","resources/trios/L1T4A1.jpg","38","restless",0.7,0.5,0.5,0.169844508446328,"true"
"image-keyboard-response",147,141982,"0.0-3.45-1.45","2dsp70rgztke380",658,"163.csv","","null","resources/maskTrios/BT4B.jpg","null","",NA,NA,NA,NA,""
"image-keyboard-response",148,143184,"0.0-3.45-2.45","2dsp70rgztke380",658,"163.csv","","null","resources/images/coin2.png","null","",NA,NA,NA,NA,""
"image-keyboard-response",149,143349,"0.0-3.46-0.46","2dsp70rgztke380",658,"163.csv","","163.30000001192093","resources/trios/L1T2A1.jpg","39","restless",0.7,0.5,0.5,0.0243969010683354,"true"
"image-keyboard-response",150,143756,"0.0-3.46-1.46","2dsp70rgztke380",658,"163.csv","","null","resources/maskTrios/BBA1.jpg","null","",NA,NA,NA,NA,""
"image-keyboard-response",151,144959,"0.0-3.46-2.46","2dsp70rgztke380",658,"163.csv","","null","resources/images/coin2.png","null","",NA,NA,NA,NA,""
"image-keyboard-response",152,145002,"0.0-3.47-0.47","2dsp70rgztke380",658,"163.csv","","40.10000002384186","resources/trios/L1T4A1.jpg","37","restless",0.7,0.4,0.5,0.476789955661652,"true"
"image-keyboard-response",153,145409,"0.0-3.47-1.47","2dsp70rgztke380",658,"163.csv","","null","resources/maskTrios/L1BB.jpg","null","",NA,NA,NA,NA,""
"image-keyboard-response",154,146611,"0.0-3.47-2.47","2dsp70rgztke380",658,"163.csv","","null","resources/images/coin2.png","null","",NA,NA,NA,NA,""
"image-keyboard-response",155,146938,"0.0-3.48-0.48","2dsp70rgztke380",658,"163.csv","","325.69999998807907","resources/trios/L2T2A2.jpg","38","restless",0.8,0.4,0.5,0.732415124434437,"false"
"image-keyboard-response",156,147346,"0.0-3.48-1.48","2dsp70rgztke380",658,"163.csv","","null","resources/maskTrios/BT2B.jpg","null","",NA,NA,NA,NA,""
"image-keyboard-response",157,148552,"0.0-3.48-2.48","2dsp70rgztke380",658,"163.csv","","null","resources/images/fishbone.png","null","",NA,NA,NA,NA,""
"image-keyboard-response",158,148575,"0.0-3.49-0.49","2dsp70rgztke380",658,"163.csv","","20.5","resources/trios/L1T4A1.jpg","39","restless",0.8,0.4,0.4,0.706671287157507,"false"
"image-keyboard-response",159,148979,"0.0-3.49-1.49","2dsp70rgztke380",658,"163.csv","","null","resources/maskTrios/BBA1.jpg","null","",NA,NA,NA,NA,""
"image-keyboard-response",160,150181,"0.0-3.49-2.49","2dsp70rgztke380",658,"163.csv","","null","resources/images/fishbone.png","null","",NA,NA,NA,NA,""
"image-keyboard-response",161,150792,"0.0-3.50-0.50","2dsp70rgztke380",658,"163.csv","","608.8999999761581","resources/trios/L1T2A1.jpg","37","restless",0.8,0.4,0.4,0.22025880001425,"true"
"image-keyboard-response",162,151198,"0.0-3.50-1.50","2dsp70rgztke380",658,"163.csv","","null","resources/maskTrios/L1BB.jpg","null","",NA,NA,NA,NA,""
"image-keyboard-response",163,152405,"0.0-3.50-2.50","2dsp70rgztke380",658,"163.csv","","null","resources/images/coin2.png","null","",NA,NA,NA,NA,""
"image-keyboard-response",164,152692,"0.0-3.51-0.51","2dsp70rgztke380",658,"163.csv","","285.10000002384186","resources/trios/L1T4A2.jpg","37","restless",0.8,0.4,0.4,0.428322673202596,"true"
"image-keyboard-response",165,153099,"0.0-3.51-1.51","2dsp70rgztke380",658,"163.csv","","null","resources/maskTrios/L1BB.jpg","null","",NA,NA,NA,NA,""
"image-keyboard-response",166,154306,"0.0-3.51-2.51","2dsp70rgztke380",658,"163.csv","","null","resources/images/coin2.png","null","",NA,NA,NA,NA,""
"image-keyboard-response",167,154634,"0.0-3.52-0.52","2dsp70rgztke380",658,"163.csv","","326.10000002384186","resources/trios/L2T4A2.jpg","38","restless",0.8,0.4,0.4,0.861999222450818,"false"
"image-keyboard-response",168,155038,"0.0-3.52-1.52","2dsp70rgztke380",658,"163.csv","","null","resources/maskTrios/BT4B.jpg","null","",NA,NA,NA,NA,""
"image-keyboard-response",169,156245,"0.0-3.52-2.52","2dsp70rgztke380",658,"163.csv","","null","resources/images/fishbone.png","null","",NA,NA,NA,NA,""
"image-keyboard-response",170,156555,"0.0-3.53-0.53","2dsp70rgztke380",658,"163.csv","","308.4000000357628","resources/trios/L1T2A1.jpg","37","restless",0.8,0.4,0.4,0.741573374565936,"true"
"image-keyboard-response",171,156962,"0.0-3.53-1.53","2dsp70rgztke380",658,"163.csv","","null","resources/maskTrios/L1BB.jpg","null","",NA,NA,NA,NA,""
"image-keyboard-response",172,158167,"0.0-3.53-2.53","2dsp70rgztke380",658,"163.csv","","null","resources/images/coin2.png","null","",NA,NA,NA,NA,""
"image-keyboard-response",173,158533,"0.0-3.54-0.54","2dsp70rgztke380",658,"163.csv","","364.19999998807907","resources/trios/L1T4A2.jpg","37","restless",0.9,0.4,0.3,0.659237777378013,"true"
"image-keyboard-response",174,158937,"0.0-3.54-1.54","2dsp70rgztke380",658,"163.csv","","null","resources/maskTrios/L1BB.jpg","null","",NA,NA,NA,NA,""
"image-keyboard-response",175,160140,"0.0-3.54-2.54","2dsp70rgztke380",658,"163.csv","","null","resources/images/coin2.png","null","",NA,NA,NA,NA,""
"image-keyboard-response",176,160475,"0.0-3.55-0.55","2dsp70rgztke380",658,"163.csv","","333.19999998807907","resources/trios/L2T4A2.jpg","37","restless",0.9,0.4,0.3,0.685091586156514,"true"
"image-keyboard-response",177,160882,"0.0-3.55-1.55","2dsp70rgztke380",658,"163.csv","","null","resources/maskTrios/L2BB.jpg","null","",NA,NA,NA,NA,""
"image-keyboard-response",178,162087,"0.0-3.55-2.55","2dsp70rgztke380",658,"163.csv","","null","resources/images/coin2.png","null","",NA,NA,NA,NA,""
"image-keyboard-response",179,162426,"0.0-3.56-0.56","2dsp70rgztke380",658,"163.csv","","336.80000001192093","resources/trios/L1T2A1.jpg","37","restless",0.9,0.4,0.3,0.364914632338063,"true"
"image-keyboard-response",180,162829,"0.0-3.56-1.56","2dsp70rgztke380",658,"163.csv","","null","resources/maskTrios/L1BB.jpg","null","",NA,NA,NA,NA,""
"image-keyboard-response",181,164036,"0.0-3.56-2.56","2dsp70rgztke380",658,"163.csv","","null","resources/images/coin2.png","null","",NA,NA,NA,NA,""
"image-keyboard-response",182,164273,"0.0-3.57-0.57","2dsp70rgztke380",658,"163.csv","","234.30000001192093","resources/trios/L2T2A1.jpg","39","restless",0.9,0.4,0.3,0.828471560730852,"false"
"image-keyboard-response",183,164680,"0.0-3.57-1.57","2dsp70rgztke380",658,"163.csv","","null","resources/maskTrios/BBA1.jpg","null","",NA,NA,NA,NA,""
"image-keyboard-response",184,165887,"0.0-3.57-2.57","2dsp70rgztke380",658,"163.csv","","null","resources/images/fishbone.png","null","",NA,NA,NA,NA,""
"image-keyboard-response",185,166529,"0.0-3.58-0.58","2dsp70rgztke380",658,"163.csv","","639.8999999761581","resources/trios/L2T2A2.jpg","38","restless",0.9,0.4,0.3,0.482188963500912,"false"
"image-keyboard-response",186,166932,"0.0-3.58-1.58","2dsp70rgztke380",658,"163.csv","","null","resources/maskTrios/BT2B.jpg","null","",NA,NA,NA,NA,""
"image-keyboard-response",187,168138,"0.0-3.58-2.58","2dsp70rgztke380",658,"163.csv","","null","resources/images/fishbone.png","null","",NA,NA,NA,NA,""
"image-keyboard-response",188,168497,"0.0-3.59-0.59","2dsp70rgztke380",658,"163.csv","","356.4000000357628","resources/trios/L1T4A1.jpg","37","restless",0.9,0.4,0.3,0.815963838181954,"true"
"image-keyboard-response",189,168904,"0.0-3.59-1.59","2dsp70rgztke380",658,"163.csv","","null","resources/maskTrios/L1BB.jpg","null","",NA,NA,NA,NA,""
"image-keyboard-response",190,170108,"0.0-3.59-2.59","2dsp70rgztke380",658,"163.csv","","null","resources/images/coin2.png","null","",NA,NA,NA,NA,""
"image-keyboard-response",191,171316,"0.0-3.60-0.60","2dsp70rgztke380",658,"163.csv","","1205.5","resources/trios/L2T4A1.jpg","37","restless",0.9,0.4,0.2,0.925944420192313,"false"
"image-keyboard-response",192,171723,"0.0-3.60-1.60","2dsp70rgztke380",658,"163.csv","","null","resources/maskTrios/L2BB.jpg","null","",NA,NA,NA,NA,""
"image-keyboard-response",193,172928,"0.0-3.60-2.60","2dsp70rgztke380",658,"163.csv","","null","resources/images/fishbone.png","null","",NA,NA,NA,NA,""
"image-keyboard-response",194,173480,"0.0-3.61-0.61","2dsp70rgztke380",658,"163.csv","","549.4000000357628","resources/trios/L2T2A2.jpg","38","restless",0.9,0.4,0.2,0.0502466549460703,"true"
"image-keyboard-response",195,173887,"0.0-3.61-1.61","2dsp70rgztke380",658,"163.csv","","null","resources/maskTrios/BT2B.jpg","null","",NA,NA,NA,NA,""
"image-keyboard-response",196,175094,"0.0-3.61-2.61","2dsp70rgztke380",658,"163.csv","","null","resources/images/coin2.png","null","",NA,NA,NA,NA,""
"image-keyboard-response",197,175436,"0.0-3.62-0.62","2dsp70rgztke380",658,"163.csv","","339.69999998807907","resources/trios/L1T2A1.jpg","38","restless",0.9,0.4,0.2,0.974755742886925,"false"
"image-keyboard-response",198,175841,"0.0-3.62-1.62","2dsp70rgztke380",658,"163.csv","","null","resources/maskTrios/BT2B.jpg","null","",NA,NA,NA,NA,""
"image-keyboard-response",199,177048,"0.0-3.62-2.62","2dsp70rgztke380",658,"163.csv","","null","resources/images/fishbone.png","null","",NA,NA,NA,NA,""
"image-keyboard-response",200,177329,"0.0-3.63-0.63","2dsp70rgztke380",658,"163.csv","","280.7999999523163","resources/trios/L2T4A2.jpg","39","restless",0.9,0.4,0.2,0.644211242817576,"false"
"image-keyboard-response",201,177731,"0.0-3.63-1.63","2dsp70rgztke380",658,"163.csv","","null","resources/maskTrios/BBA2.jpg","null","",NA,NA,NA,NA,""
"image-keyboard-response",202,178937,"0.0-3.63-2.63","2dsp70rgztke380",658,"163.csv","","null","resources/images/fishbone.png","null","",NA,NA,NA,NA,""
"image-keyboard-response",203,179254,"0.0-3.64-0.64","2dsp70rgztke380",658,"163.csv","","315.2999999523163","resources/trios/L2T4A1.jpg","37","restless",0.8,0.4,0.2,0.874688449229937,"false"
"image-keyboard-response",204,179661,"0.0-3.64-1.64","2dsp70rgztke380",658,"163.csv","","null","resources/maskTrios/L2BB.jpg","null","",NA,NA,NA,NA,""
"image-keyboard-response",205,180867,"0.0-3.64-2.64","2dsp70rgztke380",658,"163.csv","","null","resources/images/fishbone.png","null","",NA,NA,NA,NA,""
"image-keyboard-response",206,181175,"0.0-3.65-0.65","2dsp70rgztke380",658,"163.csv","","306.5","resources/trios/L2T2A1.jpg","38","restless",0.8,0.4,0.2,0.339484713003599,"true"
"image-keyboard-response",207,181579,"0.0-3.65-1.65","2dsp70rgztke380",658,"163.csv","","null","resources/maskTrios/BT2B.jpg","null","",NA,NA,NA,NA,""
"image-keyboard-response",208,182785,"0.0-3.65-2.65","2dsp70rgztke380",658,"163.csv","","null","resources/images/coin2.png","null","",NA,NA,NA,NA,""
"image-keyboard-response",209,183209,"0.0-3.66-0.66","2dsp70rgztke380",658,"163.csv","","422.39999997615814","resources/trios/L2T4A2.jpg","38","restless",0.8,0.4,0.2,0.924619604089035,"false"
"image-keyboard-response",210,183613,"0.0-3.66-1.66","2dsp70rgztke380",658,"163.csv","","null","resources/maskTrios/BT4B.jpg","null","",NA,NA,NA,NA,""
"image-keyboard-response",211,184820,"0.0-3.66-2.66","2dsp70rgztke380",658,"163.csv","","null","resources/images/fishbone.png","null","",NA,NA,NA,NA,""
"image-keyboard-response",212,185416,"0.0-3.67-0.67","2dsp70rgztke380",658,"163.csv","","594.8999999761581","resources/trios/L2T4A1.jpg","39","restless",0.8,0.4,0.2,0.998307930198369,"false"
"image-keyboard-response",213,185819,"0.0-3.67-1.67","2dsp70rgztke380",658,"163.csv","","null","resources/maskTrios/BBA1.jpg","null","",NA,NA,NA,NA,""
"image-keyboard-response",214,187022,"0.0-3.67-2.67","2dsp70rgztke380",658,"163.csv","","null","resources/images/fishbone.png","null","",NA,NA,NA,NA,""
"image-keyboard-response",215,187163,"0.0-3.68-0.68","2dsp70rgztke380",658,"163.csv","","139.30000001192093","resources/trios/L2T4A2.jpg","38","restless",0.8,0.5,0.2,0.0860746174873126,"true"
"image-keyboard-response",216,187569,"0.0-3.68-1.68","2dsp70rgztke380",658,"163.csv","","null","resources/maskTrios/BT4B.jpg","null","",NA,NA,NA,NA,""
"image-keyboard-response",217,188773,"0.0-3.68-2.68","2dsp70rgztke380",658,"163.csv","","null","resources/images/coin2.png","null","",NA,NA,NA,NA,""
"image-keyboard-response",218,189189,"0.0-3.69-0.69","2dsp70rgztke380",658,"163.csv","","414.10000002384186","resources/trios/L1T4A2.jpg","38","restless",0.8,0.5,0.2,0.786815235159048,"false"
"image-keyboard-response",219,189594,"0.0-3.69-1.69","2dsp70rgztke380",658,"163.csv","","null","resources/maskTrios/BT4B.jpg","null","",NA,NA,NA,NA,""
"image-keyboard-response",220,190801,"0.0-3.69-2.69","2dsp70rgztke380",658,"163.csv","","null","resources/images/fishbone.png","null","",NA,NA,NA,NA,""
"image-keyboard-response",221,191533,"0.0-3.70-0.70","2dsp70rgztke380",658,"163.csv","","730.1000000238419","resources/trios/L2T2A2.jpg","38","restless",0.8,0.5,0.2,0.248027012322529,"true"
"image-keyboard-response",222,191940,"0.0-3.70-1.70","2dsp70rgztke380",658,"163.csv","","null","resources/maskTrios/BT2B.jpg","null","",NA,NA,NA,NA,""
"image-keyboard-response",223,193145,"0.0-3.70-2.70","2dsp70rgztke380",658,"163.csv","","null","resources/images/coin2.png","null","",NA,NA,NA,NA,""
"image-keyboard-response",224,193488,"0.0-3.71-0.71","2dsp70rgztke380",658,"163.csv","","340.60000002384186","resources/trios/L2T2A1.jpg","38","restless",0.8,0.5,0.2,0.411933768792778,"true"
"image-keyboard-response",225,193894,"0.0-3.71-1.71","2dsp70rgztke380",658,"163.csv","","null","resources/maskTrios/BT2B.jpg","null","",NA,NA,NA,NA,""
"image-keyboard-response",226,195101,"0.0-3.71-2.71","2dsp70rgztke380",658,"163.csv","","null","resources/images/coin2.png","null","",NA,NA,NA,NA,""
"image-keyboard-response",227,195448,"0.0-3.72-0.72","2dsp70rgztke380",658,"163.csv","","345.30000001192093","resources/trios/L1T2A2.jpg","38","restless",0.8,0.5,0.2,0.700820059643571,"false"
"image-keyboard-response",228,195855,"0.0-3.72-1.72","2dsp70rgztke380",658,"163.csv","","null","resources/maskTrios/BT2B.jpg","null","",NA,NA,NA,NA,""
"image-keyboard-response",229,197059,"0.0-3.72-2.72","2dsp70rgztke380",658,"163.csv","","null","resources/images/fishbone.png","null","",NA,NA,NA,NA,""
"image-keyboard-response",230,197134,"0.0-3.73-0.73","2dsp70rgztke380",658,"163.csv","","72.19999998807907","resources/trios/L2T4A2.jpg","38","restless",0.7,0.5,0.2,0.957890931723204,"false"
"image-keyboard-response",231,197541,"0.0-3.73-1.73","2dsp70rgztke380",658,"163.csv","","null","resources/maskTrios/BT4B.jpg","null","",NA,NA,NA,NA,""
"image-keyboard-response",232,198746,"0.0-3.73-2.73","2dsp70rgztke380",658,"163.csv","","null","resources/images/fishbone.png","null","",NA,NA,NA,NA,""
"image-keyboard-response",233,199086,"0.0-3.74-0.74","2dsp70rgztke380",658,"163.csv","","338.7000000476837","resources/trios/L2T4A2.jpg","37","restless",0.7,0.5,0.2,0.860028137723961,"false"
"image-keyboard-response",234,199494,"0.0-3.74-1.74","2dsp70rgztke380",658,"163.csv","","null","resources/maskTrios/L2BB.jpg","null","",NA,NA,NA,NA,""
"image-keyboard-response",235,200701,"0.0-3.74-2.74","2dsp70rgztke380",658,"163.csv","","null","resources/images/fishbone.png","null","",NA,NA,NA,NA,""
"image-keyboard-response",236,200830,"0.0-3.75-0.75","2dsp70rgztke380",658,"163.csv","","127","resources/trios/L1T4A1.jpg","38","restless",0.7,0.6,0.2,0.285440192647139,"true"
"image-keyboard-response",237,201237,"0.0-3.75-1.75","2dsp70rgztke380",658,"163.csv","","null","resources/maskTrios/BT4B.jpg","null","",NA,NA,NA,NA,""
"image-keyboard-response",238,202442,"0.0-3.75-2.75","2dsp70rgztke380",658,"163.csv","","null","resources/images/coin2.png","null","",NA,NA,NA,NA,""
"image-keyboard-response",239,202848,"0.0-3.76-0.76","2dsp70rgztke380",658,"163.csv","","403.2999999523163","resources/trios/L2T4A1.jpg","38","restless",0.7,0.5,0.2,0.288342356304021,"true"
"image-keyboard-response",240,203255,"0.0-3.76-1.76","2dsp70rgztke380",658,"163.csv","","null","resources/maskTrios/BT4B.jpg","null","",NA,NA,NA,NA,""
"image-keyboard-response",241,204459,"0.0-3.76-2.76","2dsp70rgztke380",658,"163.csv","","null","resources/images/coin2.png","null","",NA,NA,NA,NA,""
"image-keyboard-response",242,204557,"0.0-3.77-0.77","2dsp70rgztke380",658,"163.csv","","95.5","resources/trios/L2T2A1.jpg","38","restless",0.7,0.5,0.2,0.031032079206913,"true"
"image-keyboard-response",243,204963,"0.0-3.77-1.77","2dsp70rgztke380",658,"163.csv","","null","resources/maskTrios/BT2B.jpg","null","",NA,NA,NA,NA,""
"image-keyboard-response",244,206166,"0.0-3.77-2.77","2dsp70rgztke380",658,"163.csv","","null","resources/images/coin2.png","null","",NA,NA,NA,NA,""
"image-keyboard-response",245,233851,"0.0-3.78-0.78","2dsp70rgztke380",658,"163.csv","","27682.80000001192","resources/trios/L2T2A1.jpg","38","restless",0.6,0.6,0.2,0.390905716644463,"true"
"image-keyboard-response",246,234258,"0.0-3.78-1.78","2dsp70rgztke380",658,"163.csv","","null","resources/maskTrios/BT2B.jpg","null","",NA,NA,NA,NA,""
"image-keyboard-response",247,235466,"0.0-3.78-2.78","2dsp70rgztke380",658,"163.csv","","null","resources/images/coin2.png","null","",NA,NA,NA,NA,""
"image-keyboard-response",248,235748,"0.0-3.79-0.79","2dsp70rgztke380",658,"163.csv","","280.30000001192093","resources/trios/L2T4A2.jpg","39","restless",0.6,0.6,0.3,0.563440224419576,"false"
"image-keyboard-response",249,236154,"0.0-3.79-1.79","2dsp70rgztke380",658,"163.csv","","null","resources/maskTrios/BBA2.jpg","null","",NA,NA,NA,NA,""
"image-keyboard-response",250,237361,"0.0-3.79-2.79","2dsp70rgztke380",658,"163.csv","","null","resources/images/fishbone.png","null","",NA,NA,NA,NA,""
"image-keyboard-response",251,237814,"0.0-3.80-0.80","2dsp70rgztke380",658,"163.csv","","450.19999998807907","resources/trios/L1T2A2.jpg","38","restless",0.6,0.6,0.3,0.911913204179936,"false"
"image-keyboard-response",252,238218,"0.0-3.80-1.80","2dsp70rgztke380",658,"163.csv","","null","resources/maskTrios/BT2B.jpg","null","",NA,NA,NA,NA,""
"image-keyboard-response",253,239425,"0.0-3.80-2.80","2dsp70rgztke380",658,"163.csv","","null","resources/images/fishbone.png","null","",NA,NA,NA,NA,""
"image-keyboard-response",254,239731,"0.0-3.81-0.81","2dsp70rgztke380",658,"163.csv","","303.80000001192093","resources/trios/L2T2A2.jpg","37","restless",0.6,0.5,0.3,0.188481728652033,"true"
"image-keyboard-response",255,240136,"0.0-3.81-1.81","2dsp70rgztke380",658,"163.csv","","null","resources/maskTrios/L2BB.jpg","null","",NA,NA,NA,NA,""
"image-keyboard-response",256,241343,"0.0-3.81-2.81","2dsp70rgztke380",658,"163.csv","","null","resources/images/coin2.png","null","",NA,NA,NA,NA,""
"image-keyboard-response",257,241595,"0.0-3.82-0.82","2dsp70rgztke380",658,"163.csv","","249.5","resources/trios/L2T4A1.jpg","38","restless",0.6,0.5,0.3,0.0805840204038544,"true"
"image-keyboard-response",258,241998,"0.0-3.82-1.82","2dsp70rgztke380",658,"163.csv","","null","resources/maskTrios/BT4B.jpg","null","",NA,NA,NA,NA,""
"image-keyboard-response",259,243206,"0.0-3.82-2.82","2dsp70rgztke380",658,"163.csv","","null","resources/images/coin2.png","null","",NA,NA,NA,NA,""
"image-keyboard-response",260,243536,"0.0-3.83-0.83","2dsp70rgztke380",658,"163.csv","","327.89999997615814","resources/trios/L2T2A1.jpg","37","restless",0.6,0.5,0.3,0.0258221282427669,"true"
"image-keyboard-response",261,243944,"0.0-3.83-1.83","2dsp70rgztke380",658,"163.csv","","null","resources/maskTrios/L2BB.jpg","null","",NA,NA,NA,NA,""
"image-keyboard-response",262,245146,"0.0-3.83-2.83","2dsp70rgztke380",658,"163.csv","","null","resources/images/coin2.png","null","",NA,NA,NA,NA,""
"image-keyboard-response",263,245452,"0.0-3.84-0.84","2dsp70rgztke380",658,"163.csv","","302.89999997615814","resources/trios/L1T2A1.jpg","38","restless",0.6,0.5,0.2,0.867417878039715,"false"
"image-keyboard-response",264,245859,"0.0-3.84-1.84","2dsp70rgztke380",658,"163.csv","","null","resources/maskTrios/BT2B.jpg","null","",NA,NA,NA,NA,""
"image-keyboard-response",265,247065,"0.0-3.84-2.84","2dsp70rgztke380",658,"163.csv","","null","resources/images/fishbone.png","null","",NA,NA,NA,NA,""
"image-keyboard-response",266,247341,"0.0-3.85-0.85","2dsp70rgztke380",658,"163.csv","","274.7000000476837","resources/trios/L2T4A1.jpg","37","restless",0.6,0.5,0.2,0.769762270794905,"false"
"image-keyboard-response",267,247745,"0.0-3.85-1.85","2dsp70rgztke380",658,"163.csv","","null","resources/maskTrios/L2BB.jpg","null","",NA,NA,NA,NA,""
"image-keyboard-response",268,248947,"0.0-3.85-2.85","2dsp70rgztke380",658,"163.csv","","null","resources/images/fishbone.png","null","",NA,NA,NA,NA,""
"image-keyboard-response",269,249537,"0.0-3.86-0.86","2dsp70rgztke380",658,"163.csv","","587.5999999642372","resources/trios/L2T2A2.jpg","38","restless",0.6,0.5,0.2,0.6640314955796,"false"
"image-keyboard-response",270,249941,"0.0-3.86-1.86","2dsp70rgztke380",658,"163.csv","","null","resources/maskTrios/BT2B.jpg","null","",NA,NA,NA,NA,""
"image-keyboard-response",271,251146,"0.0-3.86-2.86","2dsp70rgztke380",658,"163.csv","","null","resources/images/fishbone.png","null","",NA,NA,NA,NA,""
"image-keyboard-response",272,251240,"0.0-3.87-0.87","2dsp70rgztke380",658,"163.csv","","91.80000001192093","resources/trios/L1T4A1.jpg","39","restless",0.5,0.5,0.2,0.765950334401356,"false"
"image-keyboard-response",273,251645,"0.0-3.87-1.87","2dsp70rgztke380",658,"163.csv","","null","resources/maskTrios/BBA1.jpg","null","",NA,NA,NA,NA,""
"image-keyboard-response",274,252852,"0.0-3.87-2.87","2dsp70rgztke380",658,"163.csv","","null","resources/images/fishbone.png","null","",NA,NA,NA,NA,""
"image-keyboard-response",275,253418,"0.0-3.88-0.88","2dsp70rgztke380",658,"163.csv","","564.1999999880791","resources/trios/L1T4A1.jpg","39","restless",0.5,0.5,0.2,0.135784812902936,"true"
"image-keyboard-response",276,253825,"0.0-3.88-1.88","2dsp70rgztke380",658,"163.csv","","null","resources/maskTrios/BBA1.jpg","null","",NA,NA,NA,NA,""
"image-keyboard-response",277,255032,"0.0-3.88-2.88","2dsp70rgztke380",658,"163.csv","","null","resources/images/coin2.png","null","",NA,NA,NA,NA,""
"image-keyboard-response",278,255296,"0.0-3.89-0.89","2dsp70rgztke380",658,"163.csv","","262.30000001192093","resources/trios/L2T2A2.jpg","39","restless",0.5,0.5,0.2,0.889769955077251,"false"
"image-keyboard-response",279,255703,"0.0-3.89-1.89","2dsp70rgztke380",658,"163.csv","","null","resources/maskTrios/BBA2.jpg","null","",NA,NA,NA,NA,""
"image-keyboard-response",280,256909,"0.0-3.89-2.89","2dsp70rgztke380",658,"163.csv","","null","resources/images/fishbone.png","null","",NA,NA,NA,NA,""
"image-keyboard-response",281,257217,"0.0-3.90-0.90","2dsp70rgztke380",658,"163.csv","","305.60000002384186","resources/trios/L1T2A2.jpg","38","restless",0.5,0.5,0.2,0.0664528597511089,"true"
"image-keyboard-response",282,257621,"0.0-3.90-1.90","2dsp70rgztke380",658,"163.csv","","null","resources/maskTrios/BT2B.jpg","null","",NA,NA,NA,NA,""
"image-keyboard-response",283,258825,"0.0-3.90-2.90","2dsp70rgztke380",658,"163.csv","","null","resources/images/coin2.png","null","",NA,NA,NA,NA,""
"image-keyboard-response",284,260740,"0.0-3.91-0.91","2dsp70rgztke380",658,"163.csv","","1913.1000000238419","resources/trios/L1T4A2.jpg","38","restless",0.5,0.5,0.1,0.598137112827891,"false"
"image-keyboard-response",285,261148,"0.0-3.91-1.91","2dsp70rgztke380",658,"163.csv","","null","resources/maskTrios/BT4B.jpg","null","",NA,NA,NA,NA,""
"image-keyboard-response",286,262354,"0.0-3.91-2.91","2dsp70rgztke380",658,"163.csv","","null","resources/images/fishbone.png","null","",NA,NA,NA,NA,""
"image-keyboard-response",287,263103,"0.0-3.92-0.92","2dsp70rgztke380",658,"163.csv","","746.8000000119209","resources/trios/L2T4A2.jpg","37","restless",0.5,0.6,0.1,0.978227703759579,"false"
"image-keyboard-response",288,263510,"0.0-3.92-1.92","2dsp70rgztke380",658,"163.csv","","null","resources/maskTrios/L2BB.jpg","null","",NA,NA,NA,NA,""
"image-keyboard-response",289,264717,"0.0-3.92-2.92","2dsp70rgztke380",658,"163.csv","","null","resources/images/fishbone.png","null","",NA,NA,NA,NA,""
"image-keyboard-response",290,264852,"0.0-3.93-0.93","2dsp70rgztke380",658,"163.csv","","133","resources/trios/L2T4A2.jpg","38","restless",0.5,0.7,0.1,0.357547934405522,"true"
"image-keyboard-response",291,265258,"0.0-3.93-1.93","2dsp70rgztke380",658,"163.csv","","null","resources/maskTrios/BT4B.jpg","null","",NA,NA,NA,NA,""
"image-keyboard-response",292,266461,"0.0-3.93-2.93","2dsp70rgztke380",658,"163.csv","","null","resources/images/coin2.png","null","",NA,NA,NA,NA,""
"image-keyboard-response",293,266867,"0.0-3.94-0.94","2dsp70rgztke380",658,"163.csv","","404.69999998807907","resources/trios/L1T4A1.jpg","38","restless",0.5,0.8,0.1,0.894186713058166,"false"
"image-keyboard-response",294,267274,"0.0-3.94-1.94","2dsp70rgztke380",658,"163.csv","","null","resources/maskTrios/BT4B.jpg","null","",NA,NA,NA,NA,""
"image-keyboard-response",295,268481,"0.0-3.94-2.94","2dsp70rgztke380",658,"163.csv","","null","resources/images/fishbone.png","null","",NA,NA,NA,NA,""
"image-keyboard-response",296,268748,"0.0-3.95-0.95","2dsp70rgztke380",658,"163.csv","","265.69999998807907","resources/trios/L1T4A2.jpg","39","restless",0.5,0.8,0.1,0.938071889768632,"false"
"image-keyboard-response",297,269154,"0.0-3.95-1.95","2dsp70rgztke380",658,"163.csv","","null","resources/maskTrios/BBA2.jpg","null","",NA,NA,NA,NA,""
"image-keyboard-response",298,270360,"0.0-3.95-2.95","2dsp70rgztke380",658,"163.csv","","null","resources/images/fishbone.png","null","",NA,NA,NA,NA,""
"image-keyboard-response",299,270981,"0.0-3.96-0.96","2dsp70rgztke380",658,"163.csv","","618.4000000357628","resources/trios/L2T4A1.jpg","37","restless",0.5,0.8,0.1,0.454145249069844,"true"
"image-keyboard-response",300,271388,"0.0-3.96-1.96","2dsp70rgztke380",658,"163.csv","","null","resources/maskTrios/L2BB.jpg","null","",NA,NA,NA,NA,""
"image-keyboard-response",301,272595,"0.0-3.96-2.96","2dsp70rgztke380",658,"163.csv","","null","resources/images/coin2.png","null","",NA,NA,NA,NA,""
"image-keyboard-response",302,273115,"0.0-3.97-0.97","2dsp70rgztke380",658,"163.csv","","518.5","resources/trios/L1T2A1.jpg","38","restless",0.5,0.8,0.1,0.722215525054076,"true"
"image-keyboard-response",303,273522,"0.0-3.97-1.97","2dsp70rgztke380",658,"163.csv","","null","resources/maskTrios/BT2B.jpg","null","",NA,NA,NA,NA,""
"image-keyboard-response",304,274730,"0.0-3.97-2.97","2dsp70rgztke380",658,"163.csv","","null","resources/images/coin2.png","null","",NA,NA,NA,NA,""
"image-keyboard-response",305,275765,"0.0-3.98-0.98","2dsp70rgztke380",658,"163.csv","","1032.800000011921","resources/trios/L1T4A1.jpg","38","restless",0.5,0.8,0.1,0.703058063252031,"true"
"image-keyboard-response",306,276172,"0.0-3.98-1.98","2dsp70rgztke380",658,"163.csv","","null","resources/maskTrios/BT4B.jpg","null","",NA,NA,NA,NA,""
"image-keyboard-response",307,277378,"0.0-3.98-2.98","2dsp70rgztke380",658,"163.csv","","null","resources/images/coin2.png","null","",NA,NA,NA,NA,""
"image-keyboard-response",308,278117,"0.0-3.99-0.99","2dsp70rgztke380",658,"163.csv","","738.8000000119209","resources/trios/L1T2A1.jpg","38","restless",0.5,0.8,0.2,0.746475247633904,"true"
"image-keyboard-response",309,278524,"0.0-3.99-1.99","2dsp70rgztke380",658,"163.csv","","null","resources/maskTrios/BT2B.jpg","null","",NA,NA,NA,NA,""
"image-keyboard-response",310,279727,"0.0-3.99-2.99","2dsp70rgztke380",658,"163.csv","","null","resources/images/coin2.png","null","",NA,NA,NA,NA,""
"image-keyboard-response",311,280110,"0.0-3.100-0.100","2dsp70rgztke380",658,"163.csv","","380.30000001192093","resources/trios/L1T2A1.jpg","38","restless",0.5,0.8,0.2,0.199808683303458,"true"
"image-keyboard-response",312,280517,"0.0-3.100-1.100","2dsp70rgztke380",658,"163.csv","","null","resources/maskTrios/BT2B.jpg","null","",NA,NA,NA,NA,""
"image-keyboard-response",313,281721,"0.0-3.100-2.100","2dsp70rgztke380",658,"163.csv","","null","resources/images/coin2.png","null","",NA,NA,NA,NA,""
"image-keyboard-response",314,281963,"0.0-3.101-0.101","2dsp70rgztke380",658,"163.csv","","240.39999997615814","resources/trios/L1T2A1.jpg","39","restless",0.5,0.8,0.2,0.427858523708143,"false"
"image-keyboard-response",315,282368,"0.0-3.101-1.101","2dsp70rgztke380",658,"163.csv","","null","resources/maskTrios/BBA1.jpg","null","",NA,NA,NA,NA,""
"image-keyboard-response",316,283574,"0.0-3.101-2.101","2dsp70rgztke380",658,"163.csv","","null","resources/images/fishbone.png","null","",NA,NA,NA,NA,""
"image-keyboard-response",317,283890,"0.0-3.102-0.102","2dsp70rgztke380",658,"163.csv","","313.80000001192093","resources/trios/L2T4A2.jpg","37","restless",0.5,0.8,0.3,0.222203913411674,"true"
"image-keyboard-response",318,284297,"0.0-3.102-1.102","2dsp70rgztke380",658,"163.csv","","null","resources/maskTrios/L2BB.jpg","null","",NA,NA,NA,NA,""
"image-keyboard-response",319,285505,"0.0-3.102-2.102","2dsp70rgztke380",658,"163.csv","","null","resources/images/coin2.png","null","",NA,NA,NA,NA,""
"image-keyboard-response",320,285842,"0.0-3.103-0.103","2dsp70rgztke380",658,"163.csv","","335.10000002384186","resources/trios/L2T2A2.jpg","38","restless",0.5,0.8,0.3,0.592047833446152,"true"
"image-keyboard-response",321,286249,"0.0-3.103-1.103","2dsp70rgztke380",658,"163.csv","","null","resources/maskTrios/BT2B.jpg","null","",NA,NA,NA,NA,""
"image-keyboard-response",322,287456,"0.0-3.103-2.103","2dsp70rgztke380",658,"163.csv","","null","resources/images/coin2.png","null","",NA,NA,NA,NA,""
"image-keyboard-response",323,287551,"0.0-3.104-0.104","2dsp70rgztke380",658,"163.csv","","92.90000003576279","resources/trios/L2T4A2.jpg","37","restless",0.5,0.8,0.3,0.474438092038948,"true"
"image-keyboard-response",324,287953,"0.0-3.104-1.104","2dsp70rgztke380",658,"163.csv","","null","resources/maskTrios/L2BB.jpg","null","",NA,NA,NA,NA,""
"image-keyboard-response",325,289157,"0.0-3.104-2.104","2dsp70rgztke380",658,"163.csv","","null","resources/images/coin2.png","null","",NA,NA,NA,NA,""
"image-keyboard-response",326,289658,"0.0-3.105-0.105","2dsp70rgztke380",658,"163.csv","","498.4000000357628","resources/trios/L2T4A1.jpg","38","restless",0.5,0.8,0.3,0.521511684926508,"true"
"image-keyboard-response",327,290061,"0.0-3.105-1.105","2dsp70rgztke380",658,"163.csv","","null","resources/maskTrios/BT4B.jpg","null","",NA,NA,NA,NA,""
"image-keyboard-response",328,291268,"0.0-3.105-2.105","2dsp70rgztke380",658,"163.csv","","null","resources/images/coin2.png","null","",NA,NA,NA,NA,""
"image-keyboard-response",329,291538,"0.0-3.106-0.106","2dsp70rgztke380",658,"163.csv","","268.4000000357628","resources/trios/L2T4A2.jpg","37","restless",0.5,0.8,0.3,0.49410905164716,"true"
"image-keyboard-response",330,291943,"0.0-3.106-1.106","2dsp70rgztke380",658,"163.csv","","null","resources/maskTrios/L2BB.jpg","null","",NA,NA,NA,NA,""
"image-keyboard-response",331,293146,"0.0-3.106-2.106","2dsp70rgztke380",658,"163.csv","","null","resources/images/coin2.png","null","",NA,NA,NA,NA,""
"image-keyboard-response",332,293854,"0.0-3.107-0.107","2dsp70rgztke380",658,"163.csv","","706.4000000357628","resources/trios/L2T2A2.jpg","38","restless",0.5,0.7,0.3,0.504630616158639,"true"
"image-keyboard-response",333,294259,"0.0-3.107-1.107","2dsp70rgztke380",658,"163.csv","","null","resources/maskTrios/BT2B.jpg","null","",NA,NA,NA,NA,""
"image-keyboard-response",334,295465,"0.0-3.107-2.107","2dsp70rgztke380",658,"163.csv","","null","resources/images/coin2.png","null","",NA,NA,NA,NA,""
"image-keyboard-response",335,295995,"0.0-3.108-0.108","2dsp70rgztke380",658,"163.csv","","527.6999999880791","resources/trios/L1T4A1.jpg","37","restless",0.5,0.7,0.3,0.271055424622345,"true"
"image-keyboard-response",336,296402,"0.0-3.108-1.108","2dsp70rgztke380",658,"163.csv","","null","resources/maskTrios/L1BB.jpg","null","",NA,NA,NA,NA,""
"image-keyboard-response",337,297608,"0.0-3.108-2.108","2dsp70rgztke380",658,"163.csv","","null","resources/images/coin2.png","null","",NA,NA,NA,NA,""
"image-keyboard-response",338,297998,"0.0-3.109-0.109","2dsp70rgztke380",658,"163.csv","","387.30000001192093","resources/trios/L2T4A2.jpg","38","restless",0.5,0.7,0.3,0.342295026974258,"true"
"image-keyboard-response",339,298404,"0.0-3.109-1.109","2dsp70rgztke380",658,"163.csv","","null","resources/maskTrios/BT4B.jpg","null","",NA,NA,NA,NA,""
"image-keyboard-response",340,299609,"0.0-3.109-2.109","2dsp70rgztke380",658,"163.csv","","null","resources/images/coin2.png","null","",NA,NA,NA,NA,""
"image-keyboard-response",341,300224,"0.0-3.110-0.110","2dsp70rgztke380",658,"163.csv","","614","resources/trios/L1T4A2.jpg","37","restless",0.5,0.7,0.3,0.834691972340903,"false"
"image-keyboard-response",342,300629,"0.0-3.110-1.110","2dsp70rgztke380",658,"163.csv","","null","resources/maskTrios/L1BB.jpg","null","",NA,NA,NA,NA,""
"image-keyboard-response",343,301835,"0.0-3.110-2.110","2dsp70rgztke380",658,"163.csv","","null","resources/images/fishbone.png","null","",NA,NA,NA,NA,""
"image-keyboard-response",344,301946,"0.0-3.111-0.111","2dsp70rgztke380",658,"163.csv","","110","resources/trios/L1T4A1.jpg","38","restless",0.5,0.7,0.3,0.47183559538649,"true"
"image-keyboard-response",345,302354,"0.0-3.111-1.111","2dsp70rgztke380",658,"163.csv","","null","resources/maskTrios/BT4B.jpg","null","",NA,NA,NA,NA,""
"image-keyboard-response",346,303560,"0.0-3.111-2.111","2dsp70rgztke380",658,"163.csv","","null","resources/images/coin2.png","null","",NA,NA,NA,NA,""
"image-keyboard-response",347,309112,"0.0-3.112-0.112","2dsp70rgztke380",658,"163.csv","","5550.400000035763","resources/trios/L1T4A2.jpg","38","restless",0.6,0.6,0.3,0.738752673550647,"false"
"image-keyboard-response",348,309518,"0.0-3.112-1.112","2dsp70rgztke380",658,"163.csv","","null","resources/maskTrios/BT4B.jpg","null","",NA,NA,NA,NA,""
"image-keyboard-response",349,310725,"0.0-3.112-2.112","2dsp70rgztke380",658,"163.csv","","null","resources/images/fishbone.png","null","",NA,NA,NA,NA,""
"image-keyboard-response",350,311172,"0.0-3.113-0.113","2dsp70rgztke380",658,"163.csv","","445.39999997615814","resources/trios/L2T2A2.jpg","37","restless",0.5,0.6,0.3,0.568924150695246,"false"
"image-keyboard-response",351,311576,"0.0-3.113-1.113","2dsp70rgztke380",658,"163.csv","","null","resources/maskTrios/L2BB.jpg","null","",NA,NA,NA,NA,""
"image-keyboard-response",352,312780,"0.0-3.113-2.113","2dsp70rgztke380",658,"163.csv","","null","resources/images/fishbone.png","null","",NA,NA,NA,NA,""
"image-keyboard-response",353,313188,"0.0-3.114-0.114","2dsp70rgztke380",658,"163.csv","","406.30000001192093","resources/trios/L1T4A2.jpg","38","restless",0.5,0.6,0.3,0.135152213985958,"true"
"image-keyboard-response",354,313593,"0.0-3.114-1.114","2dsp70rgztke380",658,"163.csv","","null","resources/maskTrios/BT4B.jpg","null","",NA,NA,NA,NA,""
"image-keyboard-response",355,314799,"0.0-3.114-2.114","2dsp70rgztke380",658,"163.csv","","null","resources/images/coin2.png","null","",NA,NA,NA,NA,""
"image-keyboard-response",356,314989,"0.0-3.115-0.115","2dsp70rgztke380",658,"163.csv","","188","resources/trios/L1T2A1.jpg","39","restless",0.5,0.6,0.3,0.604861921328077,"false"
"image-keyboard-response",357,315396,"0.0-3.115-1.115","2dsp70rgztke380",658,"163.csv","","null","resources/maskTrios/BBA1.jpg","null","",NA,NA,NA,NA,""
"image-keyboard-response",358,316602,"0.0-3.115-2.115","2dsp70rgztke380",658,"163.csv","","null","resources/images/fishbone.png","null","",NA,NA,NA,NA,""
"image-keyboard-response",359,316865,"0.0-3.116-0.116","2dsp70rgztke380",658,"163.csv","","260.30000001192093","resources/trios/L2T4A2.jpg","38","restless",0.5,0.6,0.3,0.74710011212161,"false"
"image-keyboard-response",360,317270,"0.0-3.116-1.116","2dsp70rgztke380",658,"163.csv","","null","resources/maskTrios/BT4B.jpg","null","",NA,NA,NA,NA,""
"image-keyboard-response",361,318476,"0.0-3.116-2.116","2dsp70rgztke380",658,"163.csv","","null","resources/images/fishbone.png","null","",NA,NA,NA,NA,""
"image-keyboard-response",362,318914,"0.0-3.117-0.117","2dsp70rgztke380",658,"163.csv","","435.7999999523163","resources/trios/L2T4A1.jpg","37","restless",0.5,0.6,0.3,0.269075754342836,"true"
"image-keyboard-response",363,319321,"0.0-3.117-1.117","2dsp70rgztke380",658,"163.csv","","null","resources/maskTrios/L2BB.jpg","null","",NA,NA,NA,NA,""
"image-keyboard-response",364,320524,"0.0-3.117-2.117","2dsp70rgztke380",658,"163.csv","","null","resources/images/coin2.png","null","",NA,NA,NA,NA,""
"image-keyboard-response",365,321197,"0.0-3.118-0.118","2dsp70rgztke380",658,"163.csv","","670.4000000357628","resources/trios/L1T4A2.jpg","38","restless",0.5,0.6,0.2,0.191058781670757,"true"
"image-keyboard-response",366,321603,"0.0-3.118-1.118","2dsp70rgztke380",658,"163.csv","","null","resources/maskTrios/BT4B.jpg","null","",NA,NA,NA,NA,""
"image-keyboard-response",367,322809,"0.0-3.118-2.118","2dsp70rgztke380",658,"163.csv","","null","resources/images/coin2.png","null","",NA,NA,NA,NA,""
"image-keyboard-response",368,323198,"0.0-3.119-0.119","2dsp70rgztke380",658,"163.csv","","387.60000002384186","resources/trios/L1T2A2.jpg","37","restless",0.5,0.5,0.2,0.307292629354773,"true"
"image-keyboard-response",369,323605,"0.0-3.119-1.119","2dsp70rgztke380",658,"163.csv","","null","resources/maskTrios/L1BB.jpg","null","",NA,NA,NA,NA,""
"image-keyboard-response",370,324810,"0.0-3.119-2.119","2dsp70rgztke380",658,"163.csv","","null","resources/images/coin2.png","null","",NA,NA,NA,NA,""
"image-keyboard-response",371,324917,"0.0-3.120-0.120","2dsp70rgztke380",658,"163.csv","","105.30000001192093","resources/trios/L2T2A2.jpg","38","restless",0.5,0.5,0.2,0.0280154647769242,"true"
"image-keyboard-response",372,325324,"0.0-3.120-1.120","2dsp70rgztke380",658,"163.csv","","null","resources/maskTrios/BT2B.jpg","null","",NA,NA,NA,NA,""
"image-keyboard-response",373,326530,"0.0-3.120-2.120","2dsp70rgztke380",658,"163.csv","","null","resources/images/coin2.png","null","",NA,NA,NA,NA,""
"image-keyboard-response",374,326851,"0.0-3.121-0.121","2dsp70rgztke380",658,"163.csv","","319.0999999642372","resources/trios/L1T2A2.jpg","37","restless",0.5,0.5,0.2,0.642402973915175,"false"
"image-keyboard-response",375,327258,"0.0-3.121-1.121","2dsp70rgztke380",658,"163.csv","","null","resources/maskTrios/L1BB.jpg","null","",NA,NA,NA,NA,""
"image-keyboard-response",376,328460,"0.0-3.121-2.121","2dsp70rgztke380",658,"163.csv","","null","resources/images/fishbone.png","null","",NA,NA,NA,NA,""
"image-keyboard-response",377,328484,"0.0-3.122-0.122","2dsp70rgztke380",658,"163.csv","","22.5","resources/trios/L2T4A2.jpg","38","restless",0.5,0.5,0.2,0.190477165255968,"true"
"image-keyboard-response",378,328886,"0.0-3.122-1.122","2dsp70rgztke380",658,"163.csv","","null","resources/maskTrios/BT4B.jpg","null","",NA,NA,NA,NA,""
"image-keyboard-response",379,330092,"0.0-3.122-2.122","2dsp70rgztke380",658,"163.csv","","null","resources/images/coin2.png","null","",NA,NA,NA,NA,""
"image-keyboard-response",380,330464,"0.0-3.123-0.123","2dsp70rgztke380",658,"163.csv","","371.10000002384186","resources/trios/L1T4A2.jpg","39","restless",0.5,0.5,0.2,0.602075457367554,"false"
"image-keyboard-response",381,330867,"0.0-3.123-1.123","2dsp70rgztke380",658,"163.csv","","null","resources/maskTrios/BBA2.jpg","null","",NA,NA,NA,NA,""
"image-keyboard-response",382,332071,"0.0-3.123-2.123","2dsp70rgztke380",658,"163.csv","","null","resources/images/fishbone.png","null","",NA,NA,NA,NA,""
"image-keyboard-response",383,332372,"0.0-3.124-0.124","2dsp70rgztke380",658,"163.csv","","299.9000000357628","resources/trios/L2T4A2.jpg","38","restless",0.5,0.5,0.2,0.474298016881924,"true"
"image-keyboard-response",384,332779,"0.0-3.124-1.124","2dsp70rgztke380",658,"163.csv","","null","resources/maskTrios/BT4B.jpg","null","",NA,NA,NA,NA,""
"image-keyboard-response",385,333986,"0.0-3.124-2.124","2dsp70rgztke380",658,"163.csv","","null","resources/images/coin2.png","null","",NA,NA,NA,NA,""
"image-keyboard-response",386,334506,"0.0-3.125-0.125","2dsp70rgztke380",658,"163.csv","","518.8000000119209","resources/trios/L2T4A2.jpg","37","restless",0.5,0.5,0.2,0.153237171225894,"true"
"image-keyboard-response",387,334912,"0.0-3.125-1.125","2dsp70rgztke380",658,"163.csv","","null","resources/maskTrios/L2BB.jpg","null","",NA,NA,NA,NA,""
"image-keyboard-response",388,336115,"0.0-3.125-2.125","2dsp70rgztke380",658,"163.csv","","null","resources/images/coin2.png","null","",NA,NA,NA,NA,""
"image-keyboard-response",389,336410,"0.0-3.126-0.126","2dsp70rgztke380",658,"163.csv","","293","resources/trios/L1T4A2.jpg","38","restless",0.5,0.5,0.2,0.597423314380994,"false"
"image-keyboard-response",390,336817,"0.0-3.126-1.126","2dsp70rgztke380",658,"163.csv","","null","resources/maskTrios/BT4B.jpg","null","",NA,NA,NA,NA,""
"image-keyboard-response",391,338023,"0.0-3.126-2.126","2dsp70rgztke380",658,"163.csv","","null","resources/images/fishbone.png","null","",NA,NA,NA,NA,""
"image-keyboard-response",392,341382,"0.0-3.127-0.127","2dsp70rgztke380",658,"163.csv","","3357.2999999523163","resources/trios/L2T4A2.jpg","37","restless",0.5,0.5,0.2,0.463221573151431,"true"
"image-keyboard-response",393,341785,"0.0-3.127-1.127","2dsp70rgztke380",658,"163.csv","","null","resources/maskTrios/L2BB.jpg","null","",NA,NA,NA,NA,""
"image-keyboard-response",394,342990,"0.0-3.127-2.127","2dsp70rgztke380",658,"163.csv","","null","resources/images/coin2.png","null","",NA,NA,NA,NA,""
"image-keyboard-response",395,343083,"0.0-3.128-0.128","2dsp70rgztke380",658,"163.csv","","90.89999997615814","resources/trios/L1T4A2.jpg","38","restless",0.5,0.5,0.2,0.435274524835809,"true"
"image-keyboard-response",396,343485,"0.0-3.128-1.128","2dsp70rgztke380",658,"163.csv","","null","resources/maskTrios/BT4B.jpg","null","",NA,NA,NA,NA,""
"image-keyboard-response",397,344692,"0.0-3.128-2.128","2dsp70rgztke380",658,"163.csv","","null","resources/images/coin2.png","null","",NA,NA,NA,NA,""
"image-keyboard-response",398,345704,"0.0-3.129-0.129","2dsp70rgztke380",658,"163.csv","","1010.6999999880791","resources/trios/L1T2A2.jpg","37","restless",0.5,0.5,0.2,0.48288846444525,"true"
"image-keyboard-response",399,346111,"0.0-3.129-1.129","2dsp70rgztke380",658,"163.csv","","null","resources/maskTrios/L1BB.jpg","null","",NA,NA,NA,NA,""
"image-keyboard-response",400,347314,"0.0-3.129-2.129","2dsp70rgztke380",658,"163.csv","","null","resources/images/coin2.png","null","",NA,NA,NA,NA,""
"image-keyboard-response",401,348035,"0.0-3.130-0.130","2dsp70rgztke380",658,"163.csv","","719.0999999642372","resources/trios/L2T2A2.jpg","38","restless",0.5,0.5,0.2,0.421033688014213,"true"
"image-keyboard-response",402,348442,"0.0-3.130-1.130","2dsp70rgztke380",658,"163.csv","","null","resources/maskTrios/BT2B.jpg","null","",NA,NA,NA,NA,""
"image-keyboard-response",403,349645,"0.0-3.130-2.130","2dsp70rgztke380",658,"163.csv","","null","resources/images/coin2.png","null","",NA,NA,NA,NA,""
"image-keyboard-response",404,350065,"0.0-3.131-0.131","2dsp70rgztke380",658,"163.csv","","417.89999997615814","resources/trios/L1T2A2.jpg","37","restless",0.5,0.5,0.2,0.0810062261377689,"true"
"image-keyboard-response",405,350469,"0.0-3.131-1.131","2dsp70rgztke380",658,"163.csv","","null","resources/maskTrios/L1BB.jpg","null","",NA,NA,NA,NA,""
"image-keyboard-response",406,351676,"0.0-3.131-2.131","2dsp70rgztke380",658,"163.csv","","null","resources/images/coin2.png","null","",NA,NA,NA,NA,""
"image-keyboard-response",407,352322,"0.0-3.132-0.132","2dsp70rgztke380",658,"163.csv","","643.6000000238419","resources/trios/L1T4A2.jpg","38","restless",0.5,0.5,0.2,0.844409299842827,"false"
"image-keyboard-response",408,352726,"0.0-3.132-1.132","2dsp70rgztke380",658,"163.csv","","null","resources/maskTrios/BT4B.jpg","null","",NA,NA,NA,NA,""
"image-keyboard-response",409,353929,"0.0-3.132-2.132","2dsp70rgztke380",658,"163.csv","","null","resources/images/fishbone.png","null","",NA,NA,NA,NA,""
"image-keyboard-response",410,354463,"0.0-3.133-0.133","2dsp70rgztke380",658,"163.csv","","531.6999999880791","resources/trios/L1T4A1.jpg","37","restless",0.6,0.5,0.2,0.712624918669802,"false"
"image-keyboard-response",411,354868,"0.0-3.133-1.133","2dsp70rgztke380",658,"163.csv","","null","resources/maskTrios/L1BB.jpg","null","",NA,NA,NA,NA,""
"image-keyboard-response",412,356073,"0.0-3.133-2.133","2dsp70rgztke380",658,"163.csv","","null","resources/images/fishbone.png","null","",NA,NA,NA,NA,""
"image-keyboard-response",413,356176,"0.0-3.134-0.134","2dsp70rgztke380",658,"163.csv","","100.29999995231628","resources/trios/L1T2A2.jpg","38","restless",0.6,0.5,0.2,0.582213311163499,"false"
"image-keyboard-response",414,356583,"0.0-3.134-1.134","2dsp70rgztke380",658,"163.csv","","null","resources/maskTrios/BT2B.jpg","null","",NA,NA,NA,NA,""
"image-keyboard-response",415,357789,"0.0-3.134-2.134","2dsp70rgztke380",658,"163.csv","","null","resources/images/fishbone.png","null","",NA,NA,NA,NA,""
"image-keyboard-response",416,358126,"0.0-3.135-0.135","2dsp70rgztke380",658,"163.csv","","334.60000002384186","resources/trios/L2T4A1.jpg","38","restless",0.6,0.5,0.2,0.513330211840591,"false"
"image-keyboard-response",417,358532,"0.0-3.135-1.135","2dsp70rgztke380",658,"163.csv","","null","resources/maskTrios/BT4B.jpg","null","",NA,NA,NA,NA,""
"image-keyboard-response",418,359739,"0.0-3.135-2.135","2dsp70rgztke380",658,"163.csv","","null","resources/images/fishbone.png","null","",NA,NA,NA,NA,""
"image-keyboard-response",419,359768,"0.0-3.136-0.136","2dsp70rgztke380",658,"163.csv","","27.200000047683716","resources/trios/L2T4A1.jpg","37","restless",0.6,0.5,0.3,0.403659945796797,"true"
"image-keyboard-response",420,360174,"0.0-3.136-1.136","2dsp70rgztke380",658,"163.csv","","null","resources/maskTrios/L2BB.jpg","null","",NA,NA,NA,NA,""
"image-keyboard-response",421,361376,"0.0-3.136-2.136","2dsp70rgztke380",658,"163.csv","","null","resources/images/coin2.png","null","",NA,NA,NA,NA,""
"image-keyboard-response",422,361770,"0.0-3.137-0.137","2dsp70rgztke380",658,"163.csv","","392.39999997615814","resources/trios/L2T4A2.jpg","38","restless",0.6,0.5,0.3,0.0838455711547674,"true"
"image-keyboard-response",423,362177,"0.0-3.137-1.137","2dsp70rgztke380",658,"163.csv","","null","resources/maskTrios/BT4B.jpg","null","",NA,NA,NA,NA,""
"image-keyboard-response",424,363384,"0.0-3.137-2.137","2dsp70rgztke380",658,"163.csv","","null","resources/images/coin2.png","null","",NA,NA,NA,NA,""
"image-keyboard-response",425,363528,"0.0-3.138-0.138","2dsp70rgztke380",658,"163.csv","","142.30000001192093","resources/trios/L2T2A2.jpg","37","restless",0.6,0.5,0.3,0.294994331562124,"true"
"image-keyboard-response",426,363935,"0.0-3.138-1.138","2dsp70rgztke380",658,"163.csv","","null","resources/maskTrios/L2BB.jpg","null","",NA,NA,NA,NA,""
"image-keyboard-response",427,365138,"0.0-3.138-2.138","2dsp70rgztke380",658,"163.csv","","null","resources/images/coin2.png","null","",NA,NA,NA,NA,""
"image-keyboard-response",428,365441,"0.0-3.139-0.139","2dsp70rgztke380",658,"163.csv","","300.9000000357628","resources/trios/L2T2A2.jpg","38","restless",0.6,0.5,0.3,0.442610233846275,"true"
"image-keyboard-response",429,365847,"0.0-3.139-1.139","2dsp70rgztke380",658,"163.csv","","null","resources/maskTrios/BT2B.jpg","null","",NA,NA,NA,NA,""
"image-keyboard-response",430,367051,"0.0-3.139-2.139","2dsp70rgztke380",658,"163.csv","","null","resources/images/coin2.png","null","",NA,NA,NA,NA,""
"image-keyboard-response",431,367427,"0.0-3.140-0.140","2dsp70rgztke380",658,"163.csv","","374.19999998807907","resources/trios/L2T2A1.jpg","37","restless",0.6,0.5,0.3,0.956771275224767,"false"
"image-keyboard-response",432,367834,"0.0-3.140-1.140","2dsp70rgztke380",658,"163.csv","","null","resources/maskTrios/L2BB.jpg","null","",NA,NA,NA,NA,""
"image-keyboard-response",433,369036,"0.0-3.140-2.140","2dsp70rgztke380",658,"163.csv","","null","resources/images/fishbone.png","null","",NA,NA,NA,NA,""
"image-keyboard-response",434,369256,"0.0-3.141-0.141","2dsp70rgztke380",658,"163.csv","","218.19999998807907","resources/trios/L2T4A2.jpg","38","restless",0.6,0.5,0.3,0.735357466868149,"false"
"image-keyboard-response",435,369659,"0.0-3.141-1.141","2dsp70rgztke380",658,"163.csv","","null","resources/maskTrios/BT4B.jpg","null","",NA,NA,NA,NA,""
"image-keyboard-response",436,370865,"0.0-3.141-2.141","2dsp70rgztke380",658,"163.csv","","null","resources/images/fishbone.png","null","",NA,NA,NA,NA,""
"image-keyboard-response",437,371303,"0.0-3.142-0.142","2dsp70rgztke380",658,"163.csv","","436","resources/trios/L1T2A2.jpg","39","restless",0.6,0.5,0.3,0.985716741977166,"false"
"image-keyboard-response",438,371709,"0.0-3.142-1.142","2dsp70rgztke380",658,"163.csv","","null","resources/maskTrios/BBA2.jpg","null","",NA,NA,NA,NA,""
"image-keyboard-response",439,372916,"0.0-3.142-2.142","2dsp70rgztke380",658,"163.csv","","null","resources/images/fishbone.png","null","",NA,NA,NA,NA,""
"image-keyboard-response",440,373246,"0.0-3.143-0.143","2dsp70rgztke380",658,"163.csv","","327.7999999523163","resources/trios/L1T4A2.jpg","38","restless",0.6,0.5,0.3,0.210216831805315,"true"
"image-keyboard-response",441,373650,"0.0-3.143-1.143","2dsp70rgztke380",658,"163.csv","","null","resources/maskTrios/BT4B.jpg","null","",NA,NA,NA,NA,""
"image-keyboard-response",442,374857,"0.0-3.143-2.143","2dsp70rgztke380",658,"163.csv","","null","resources/images/coin2.png","null","",NA,NA,NA,NA,""
"image-keyboard-response",443,375040,"0.0-3.144-0.144","2dsp70rgztke380",658,"163.csv","","181","resources/trios/L1T4A2.jpg","38","restless",0.6,0.5,0.3,0.467132218152666,"true"
"image-keyboard-response",444,375444,"0.0-3.144-1.144","2dsp70rgztke380",658,"163.csv","","null","resources/maskTrios/BT4B.jpg","null","",NA,NA,NA,NA,""
"image-keyboard-response",445,376647,"0.0-3.144-2.144","2dsp70rgztke380",658,"163.csv","","null","resources/images/coin2.png","null","",NA,NA,NA,NA,""
"image-keyboard-response",446,377176,"0.0-3.145-0.145","2dsp70rgztke380",658,"163.csv","","526.5","resources/trios/L1T4A2.jpg","38","restless",0.6,0.5,0.3,0.152116548403665,"true"
"image-keyboard-response",447,377583,"0.0-3.145-1.145","2dsp70rgztke380",658,"163.csv","","null","resources/maskTrios/BT4B.jpg","null","",NA,NA,NA,NA,""
"image-keyboard-response",448,378790,"0.0-3.145-2.145","2dsp70rgztke380",658,"163.csv","","null","resources/images/coin2.png","null","",NA,NA,NA,NA,""
"image-keyboard-response",449,379082,"0.0-3.146-0.146","2dsp70rgztke380",658,"163.csv","","290","resources/trios/L1T2A2.jpg","38","restless",0.6,0.5,0.3,0.722770880627244,"false"
"image-keyboard-response",450,379486,"0.0-3.146-1.146","2dsp70rgztke380",658,"163.csv","","null","resources/maskTrios/BT2B.jpg","null","",NA,NA,NA,NA,""
"image-keyboard-response",451,380693,"0.0-3.146-2.146","2dsp70rgztke380",658,"163.csv","","null","resources/images/fishbone.png","null","",NA,NA,NA,NA,""
"image-keyboard-response",452,381048,"0.0-3.147-0.147","2dsp70rgztke380",658,"163.csv","","353.19999998807907","resources/trios/L1T2A2.jpg","37","restless",0.6,0.5,0.3,0.449136353706812,"true"
"image-keyboard-response",453,381451,"0.0-3.147-1.147","2dsp70rgztke380",658,"163.csv","","null","resources/maskTrios/L1BB.jpg","null","",NA,NA,NA,NA,""
"image-keyboard-response",454,382658,"0.0-3.147-2.147","2dsp70rgztke380",658,"163.csv","","null","resources/images/coin2.png","null","",NA,NA,NA,NA,""
"image-keyboard-response",455,382974,"0.0-3.148-0.148","2dsp70rgztke380",658,"163.csv","","313.4000000357628","resources/trios/L1T2A2.jpg","38","restless",0.6,0.5,0.3,0.337232609181895,"true"
"image-keyboard-response",456,383380,"0.0-3.148-1.148","2dsp70rgztke380",658,"163.csv","","null","resources/maskTrios/BT2B.jpg","null","",NA,NA,NA,NA,""
"image-keyboard-response",457,384587,"0.0-3.148-2.148","2dsp70rgztke380",658,"163.csv","","null","resources/images/coin2.png","null","",NA,NA,NA,NA,""
"image-keyboard-response",458,384920,"0.0-3.149-0.149","2dsp70rgztke380",658,"163.csv","","331.30000001192093","resources/trios/L1T2A2.jpg","37","restless",0.6,0.5,0.4,0.144093205499566,"true"
"image-keyboard-response",459,385325,"0.0-3.149-1.149","2dsp70rgztke380",658,"163.csv","","null","resources/maskTrios/L1BB.jpg","null","",NA,NA,NA,NA,""
"image-keyboard-response",460,386531,"0.0-3.149-2.149","2dsp70rgztke380",658,"163.csv","","null","resources/images/coin2.png","null","",NA,NA,NA,NA,""
"image-keyboard-response",461,386775,"0.0-3.150-0.150","2dsp70rgztke380",658,"163.csv","","241.89999997615814","resources/trios/L2T2A1.jpg","38","restless",0.6,0.5,0.4,0.3926619276332,"true"
"image-keyboard-response",462,387178,"0.0-3.150-1.150","2dsp70rgztke380",658,"163.csv","","null","resources/maskTrios/BT2B.jpg","null","",NA,NA,NA,NA,""
"image-keyboard-response",463,388384,"0.0-3.150-2.150","2dsp70rgztke380",658,"163.csv","","null","resources/images/coin2.png","null","",NA,NA,NA,NA,""
"image-keyboard-response",464,388627,"0.0-3.151-0.151","2dsp70rgztke380",658,"163.csv","","240","resources/trios/L1T4A2.jpg","37","restless",0.6,0.5,0.4,0.633772566737925,"false"
"image-keyboard-response",465,389034,"0.0-3.151-1.151","2dsp70rgztke380",658,"163.csv","","null","resources/maskTrios/L1BB.jpg","null","",NA,NA,NA,NA,""
"image-keyboard-response",466,390241,"0.0-3.151-2.151","2dsp70rgztke380",658,"163.csv","","null","resources/images/fishbone.png","null","",NA,NA,NA,NA,""
"image-keyboard-response",467,390305,"0.0-3.152-0.152","2dsp70rgztke380",658,"163.csv","","62","resources/trios/L2T4A1.jpg","39","restless",0.6,0.5,0.4,0.029226579416592,"true"
"image-keyboard-response",468,390708,"0.0-3.152-1.152","2dsp70rgztke380",658,"163.csv","","null","resources/maskTrios/BBA1.jpg","null","",NA,NA,NA,NA,""
"image-keyboard-response",469,391914,"0.0-3.152-2.152","2dsp70rgztke380",658,"163.csv","","null","resources/images/coin2.png","null","",NA,NA,NA,NA,""
"image-keyboard-response",470,392254,"0.0-3.153-0.153","2dsp70rgztke380",658,"163.csv","","337.5999999642372","resources/trios/L2T4A2.jpg","38","restless",0.6,0.5,0.4,0.967295196201925,"false"
"image-keyboard-response",471,392660,"0.0-3.153-1.153","2dsp70rgztke380",658,"163.csv","","null","resources/maskTrios/BT4B.jpg","null","",NA,NA,NA,NA,""
"image-keyboard-response",472,393866,"0.0-3.153-2.153","2dsp70rgztke380",658,"163.csv","","null","resources/images/fishbone.png","null","",NA,NA,NA,NA,""
"image-keyboard-response",473,394181,"0.0-3.154-0.154","2dsp70rgztke380",658,"163.csv","","311.89999997615814","resources/trios/L2T2A2.jpg","39","restless",0.6,0.5,0.4,0.592792745909429,"false"
"image-keyboard-response",474,394588,"0.0-3.154-1.154","2dsp70rgztke380",658,"163.csv","","null","resources/maskTrios/BBA2.jpg","null","",NA,NA,NA,NA,""
"image-keyboard-response",475,395792,"0.0-3.154-2.154","2dsp70rgztke380",658,"163.csv","","null","resources/images/fishbone.png","null","",NA,NA,NA,NA,""
"image-keyboard-response",476,396132,"0.0-3.155-0.155","2dsp70rgztke380",658,"163.csv","","337.19999998807907","resources/trios/L2T4A1.jpg","37","restless",0.6,0.5,0.3,0.0934536913053408,"true"
"image-keyboard-response",477,396539,"0.0-3.155-1.155","2dsp70rgztke380",658,"163.csv","","null","resources/maskTrios/L2BB.jpg","null","",NA,NA,NA,NA,""
"image-keyboard-response",478,397746,"0.0-3.155-2.155","2dsp70rgztke380",658,"163.csv","","null","resources/images/coin2.png","null","",NA,NA,NA,NA,""
"image-keyboard-response",479,397751,"0.0-3.156-0.156","2dsp70rgztke380",658,"163.csv","","3.099999964237213","resources/trios/L2T2A2.jpg","38","restless",0.6,0.5,0.3,0.870708510177352,"false"
"image-keyboard-response",480,398153,"0.0-3.156-1.156","2dsp70rgztke380",658,"163.csv","","null","resources/maskTrios/BT2B.jpg","null","",NA,NA,NA,NA,""
"image-keyboard-response",481,399360,"0.0-3.156-2.156","2dsp70rgztke380",658,"163.csv","","null","resources/images/fishbone.png","null","",NA,NA,NA,NA,""
"image-keyboard-response",482,399742,"0.0-3.157-0.157","2dsp70rgztke380",658,"163.csv","","380.30000001192093","resources/trios/L2T2A2.jpg","37","restless",0.6,0.5,0.3,0.22768168448553,"true"
"image-keyboard-response",483,400145,"0.0-3.157-1.157","2dsp70rgztke380",658,"163.csv","","null","resources/maskTrios/L2BB.jpg","null","",NA,NA,NA,NA,""
"image-keyboard-response",484,401352,"0.0-3.157-2.157","2dsp70rgztke380",658,"163.csv","","null","resources/images/coin2.png","null","",NA,NA,NA,NA,""
"image-keyboard-response",485,401969,"0.0-3.158-0.158","2dsp70rgztke380",658,"163.csv","","614","resources/trios/L1T2A1.jpg","37","restless",0.6,0.5,0.3,0.899358740183978,"false"
"image-keyboard-response",486,402376,"0.0-3.158-1.158","2dsp70rgztke380",658,"163.csv","","null","resources/maskTrios/L1BB.jpg","null","",NA,NA,NA,NA,""
"image-keyboard-response",487,403582,"0.0-3.158-2.158","2dsp70rgztke380",658,"163.csv","","null","resources/images/fishbone.png","null","",NA,NA,NA,NA,""
"image-keyboard-response",488,403980,"0.0-3.159-0.159","2dsp70rgztke380",658,"163.csv","","395.39999997615814","resources/trios/L1T4A1.jpg","38","restless",0.6,0.5,0.4,0.0225225124207984,"true"
"image-keyboard-response",489,404383,"0.0-3.159-1.159","2dsp70rgztke380",658,"163.csv","","null","resources/maskTrios/BT4B.jpg","null","",NA,NA,NA,NA,""
"image-keyboard-response",490,405590,"0.0-3.159-2.159","2dsp70rgztke380",658,"163.csv","","null","resources/images/coin2.png","null","",NA,NA,NA,NA,""
"image-keyboard-response",491,406290,"0.0-3.160-0.160","2dsp70rgztke380",658,"163.csv","","698.5999999642372","resources/trios/L1T2A2.jpg","38","restless",0.6,0.5,0.4,0.268544717645411,"true"
"image-keyboard-response",492,406696,"0.0-3.160-1.160","2dsp70rgztke380",658,"163.csv","","null","resources/maskTrios/BT2B.jpg","null","",NA,NA,NA,NA,""
"image-keyboard-response",493,407903,"0.0-3.160-2.160","2dsp70rgztke380",658,"163.csv","","null","resources/images/coin2.png","null","",NA,NA,NA,NA,""
"image-keyboard-response",494,409046,"0.0-3.161-0.161","2dsp70rgztke380",658,"163.csv","","1141.699999988079","resources/trios/L1T2A2.jpg","38","restless",0.6,0.5,0.4,0.671145316482512,"false"
"image-keyboard-response",495,409449,"0.0-3.161-1.161","2dsp70rgztke380",658,"163.csv","","null","resources/maskTrios/BT2B.jpg","null","",NA,NA,NA,NA,""
"image-keyboard-response",496,410656,"0.0-3.161-2.161","2dsp70rgztke380",658,"163.csv","","null","resources/images/fishbone.png","null","",NA,NA,NA,NA,""
"image-keyboard-response",497,410960,"0.0-3.162-0.162","2dsp70rgztke380",658,"163.csv","","302.0999999642372","resources/trios/L2T4A2.jpg","37","restless",0.6,0.5,0.4,0.364965697656245,"true"
"image-keyboard-response",498,411368,"0.0-3.162-1.162","2dsp70rgztke380",658,"163.csv","","null","resources/maskTrios/L2BB.jpg","null","",NA,NA,NA,NA,""
"image-keyboard-response",499,412574,"0.0-3.162-2.162","2dsp70rgztke380",658,"163.csv","","null","resources/images/coin2.png","null","",NA,NA,NA,NA,""
"image-keyboard-response",500,412984,"0.0-3.163-0.163","2dsp70rgztke380",658,"163.csv","","407.80000001192093","resources/trios/L2T4A2.jpg","38","restless",0.5,0.5,0.4,0.556887276488663,"false"
"image-keyboard-response",501,413388,"0.0-3.163-1.163","2dsp70rgztke380",658,"163.csv","","null","resources/maskTrios/BT4B.jpg","null","",NA,NA,NA,NA,""
"image-keyboard-response",502,414594,"0.0-3.163-2.163","2dsp70rgztke380",658,"163.csv","","null","resources/images/fishbone.png","null","",NA,NA,NA,NA,""
"image-keyboard-response",503,414940,"0.0-3.164-0.164","2dsp70rgztke380",658,"163.csv","","343.5","resources/trios/L2T4A2.jpg","37","restless",0.5,0.4,0.4,0.791588009300182,"false"
"image-keyboard-response",504,415347,"0.0-3.164-1.164","2dsp70rgztke380",658,"163.csv","","null","resources/maskTrios/L2BB.jpg","null","",NA,NA,NA,NA,""
"image-keyboard-response",505,416554,"0.0-3.164-2.164","2dsp70rgztke380",658,"163.csv","","null","resources/images/fishbone.png","null","",NA,NA,NA,NA,""
"image-keyboard-response",506,417140,"0.0-3.165-0.165","2dsp70rgztke380",658,"163.csv","","583.8000000119209","resources/trios/L1T4A1.jpg","38","restless",0.5,0.4,0.4,0.17975134867448,"true"
"image-keyboard-response",507,417545,"0.0-3.165-1.165","2dsp70rgztke380",658,"163.csv","","null","resources/maskTrios/BT4B.jpg","null","",NA,NA,NA,NA,""
"image-keyboard-response",508,418752,"0.0-3.165-2.165","2dsp70rgztke380",658,"163.csv","","null","resources/images/coin2.png","null","",NA,NA,NA,NA,""
"image-keyboard-response",509,419089,"0.0-3.166-0.166","2dsp70rgztke380",658,"163.csv","","334.5","resources/trios/L2T2A1.jpg","37","restless",0.5,0.3,0.5,0.893393566997932,"false"
"image-keyboard-response",510,419494,"0.0-3.166-1.166","2dsp70rgztke380",658,"163.csv","","null","resources/maskTrios/L2BB.jpg","null","",NA,NA,NA,NA,""
"image-keyboard-response",511,420701,"0.0-3.166-2.166","2dsp70rgztke380",658,"163.csv","","null","resources/images/fishbone.png","null","",NA,NA,NA,NA,""
"image-keyboard-response",512,421045,"0.0-3.167-0.167","2dsp70rgztke380",658,"163.csv","","341.4000000357628","resources/trios/L1T2A2.jpg","38","restless",0.5,0.3,0.5,0.466378273030594,"false"
"image-keyboard-response",513,421451,"0.0-3.167-1.167","2dsp70rgztke380",658,"163.csv","","null","resources/maskTrios/BT2B.jpg","null","",NA,NA,NA,NA,""
"image-keyboard-response",514,422657,"0.0-3.167-2.167","2dsp70rgztke380",658,"163.csv","","null","resources/images/fishbone.png","null","",NA,NA,NA,NA,""
"image-keyboard-response",515,422959,"0.0-3.168-0.168","2dsp70rgztke380",658,"163.csv","","299.69999998807907","resources/trios/L2T4A1.jpg","39","restless",0.5,0.3,0.5,0.015970290908728,"true"
"image-keyboard-response",516,423366,"0.0-3.168-1.168","2dsp70rgztke380",658,"163.csv","","null","resources/maskTrios/BBA1.jpg","null","",NA,NA,NA,NA,""
"image-keyboard-response",517,424573,"0.0-3.168-2.168","2dsp70rgztke380",658,"163.csv","","null","resources/images/coin2.png","null","",NA,NA,NA,NA,""
"image-keyboard-response",518,424862,"0.0-3.169-0.169","2dsp70rgztke380",658,"163.csv","","286.80000001192093","resources/trios/L1T2A2.jpg","38","restless",0.5,0.4,0.5,0.369555745925592,"true"
"image-keyboard-response",519,425264,"0.0-3.169-1.169","2dsp70rgztke380",658,"163.csv","","null","resources/maskTrios/BT2B.jpg","null","",NA,NA,NA,NA,""
"image-keyboard-response",520,426471,"0.0-3.169-2.169","2dsp70rgztke380",658,"163.csv","","null","resources/images/coin2.png","null","",NA,NA,NA,NA,""
"image-keyboard-response",521,427404,"0.0-3.170-0.170","2dsp70rgztke380",658,"163.csv","","931.0999999642372","resources/trios/L2T2A2.jpg","38","restless",0.5,0.4,0.5,0.177295441830235,"true"
"image-keyboard-response",522,427809,"0.0-3.170-1.170","2dsp70rgztke380",658,"163.csv","","null","resources/maskTrios/BT2B.jpg","null","",NA,NA,NA,NA,""
"image-keyboard-response",523,429016,"0.0-3.170-2.170","2dsp70rgztke380",658,"163.csv","","null","resources/images/coin2.png","null","",NA,NA,NA,NA,""
"image-keyboard-response",524,429578,"0.0-3.171-0.171","2dsp70rgztke380",658,"163.csv","","560","resources/trios/L2T4A2.jpg","39","restless",0.5,0.4,0.5,0.987495547293757,"false"
"image-keyboard-response",525,429982,"0.0-3.171-1.171","2dsp70rgztke380",658,"163.csv","","null","resources/maskTrios/BBA2.jpg","null","",NA,NA,NA,NA,""
"image-keyboard-response",526,431186,"0.0-3.171-2.171","2dsp70rgztke380",658,"163.csv","","null","resources/images/fishbone.png","null","",NA,NA,NA,NA,""
"image-keyboard-response",527,431284,"0.0-3.172-0.172","2dsp70rgztke380",658,"163.csv","","95.30000001192093","resources/trios/L2T4A1.jpg","37","restless",0.5,0.4,0.5,0.876385677163554,"false"
"image-keyboard-response",528,431690,"0.0-3.172-1.172","2dsp70rgztke380",658,"163.csv","","null","resources/maskTrios/L2BB.jpg","null","",NA,NA,NA,NA,""
"image-keyboard-response",529,432894,"0.0-3.172-2.172","2dsp70rgztke380",658,"163.csv","","null","resources/images/fishbone.png","null","",NA,NA,NA,NA,""
"image-keyboard-response",530,433235,"0.0-3.173-0.173","2dsp70rgztke380",658,"163.csv","","338.30000001192093","resources/trios/L1T4A2.jpg","38","restless",0.5,0.4,0.5,0.179067804939236,"true"
"image-keyboard-response",531,433641,"0.0-3.173-1.173","2dsp70rgztke380",658,"163.csv","","null","resources/maskTrios/BT4B.jpg","null","",NA,NA,NA,NA,""
"image-keyboard-response",532,434844,"0.0-3.173-2.173","2dsp70rgztke380",658,"163.csv","","null","resources/images/coin2.png","null","",NA,NA,NA,NA,""
"image-keyboard-response",533,434942,"0.0-3.174-0.174","2dsp70rgztke380",658,"163.csv","","95.80000001192093","resources/trios/L2T4A2.jpg","38","restless",0.6,0.4,0.5,0.94058669242306,"false"
"image-keyboard-response",534,435344,"0.0-3.174-1.174","2dsp70rgztke380",658,"163.csv","","null","resources/maskTrios/BT4B.jpg","null","",NA,NA,NA,NA,""
"image-keyboard-response",535,436547,"0.0-3.174-2.174","2dsp70rgztke380",658,"163.csv","","null","resources/images/fishbone.png","null","",NA,NA,NA,NA,""
"image-keyboard-response",536,436862,"0.0-3.175-0.175","2dsp70rgztke380",658,"163.csv","","313.7000000476837","resources/trios/L2T2A2.jpg","38","restless",0.6,0.4,0.6,0.25741496184798,"true"
"image-keyboard-response",537,437270,"0.0-3.175-1.175","2dsp70rgztke380",658,"163.csv","","null","resources/maskTrios/BT2B.jpg","null","",NA,NA,NA,NA,""
"image-keyboard-response",538,438477,"0.0-3.175-2.175","2dsp70rgztke380",658,"163.csv","","null","resources/images/coin2.png","null","",NA,NA,NA,NA,""
"image-keyboard-response",539,438523,"0.0-3.176-0.176","2dsp70rgztke380",658,"163.csv","","44.200000047683716","resources/trios/L1T4A2.jpg","38","restless",0.6,0.4,0.6,0.647337644917837,"false"
"image-keyboard-response",540,438926,"0.0-3.176-1.176","2dsp70rgztke380",658,"163.csv","","null","resources/maskTrios/BT4B.jpg","null","",NA,NA,NA,NA,""
"image-keyboard-response",541,440129,"0.0-3.176-2.176","2dsp70rgztke380",658,"163.csv","","null","resources/images/fishbone.png","null","",NA,NA,NA,NA,""
"image-keyboard-response",542,440506,"0.0-3.177-0.177","2dsp70rgztke380",658,"163.csv","","375.19999998807907","resources/trios/L1T2A1.jpg","38","restless",0.6,0.4,0.6,0.713028684626561,"false"
"image-keyboard-response",543,440913,"0.0-3.177-1.177","2dsp70rgztke380",658,"163.csv","","null","resources/maskTrios/BT2B.jpg","null","",NA,NA,NA,NA,""
"image-keyboard-response",544,442116,"0.0-3.177-2.177","2dsp70rgztke380",658,"163.csv","","null","resources/images/fishbone.png","null","",NA,NA,NA,NA,""
"image-keyboard-response",545,442664,"0.0-3.178-0.178","2dsp70rgztke380",658,"163.csv","","546.7000000476837","resources/trios/L1T4A1.jpg","37","restless",0.6,0.4,0.6,0.870356567814939,"false"
"image-keyboard-response",546,443068,"0.0-3.178-1.178","2dsp70rgztke380",658,"163.csv","","null","resources/maskTrios/L1BB.jpg","null","",NA,NA,NA,NA,""
"image-keyboard-response",547,444274,"0.0-3.178-2.178","2dsp70rgztke380",658,"163.csv","","null","resources/images/fishbone.png","null","",NA,NA,NA,NA,""
"image-keyboard-response",548,444577,"0.0-3.179-0.179","2dsp70rgztke380",658,"163.csv","","300.5999999642372","resources/trios/L1T2A2.jpg","38","restless",0.6,0.4,0.6,0.515516320097163,"false"
"image-keyboard-response",549,444984,"0.0-3.179-1.179","2dsp70rgztke380",658,"163.csv","","null","resources/maskTrios/BT2B.jpg","null","",NA,NA,NA,NA,""
"image-keyboard-response",550,446190,"0.0-3.179-2.179","2dsp70rgztke380",658,"163.csv","","null","resources/images/fishbone.png","null","",NA,NA,NA,NA,""
"image-keyboard-response",551,446613,"0.0-3.180-0.180","2dsp70rgztke380",658,"163.csv","","420.5999999642372","resources/trios/L2T4A1.jpg","39","restless",0.6,0.4,0.6,0.748218926638866,"false"
"image-keyboard-response",552,447015,"0.0-3.180-1.180","2dsp70rgztke380",658,"163.csv","","null","resources/maskTrios/BBA1.jpg","null","",NA,NA,NA,NA,""
"image-keyboard-response",553,448222,"0.0-3.180-2.180","2dsp70rgztke380",658,"163.csv","","null","resources/images/fishbone.png","null","",NA,NA,NA,NA,""
"image-keyboard-response",554,448638,"0.0-3.181-0.181","2dsp70rgztke380",658,"163.csv","","414","resources/trios/L1T2A1.jpg","38","restless",0.6,0.4,0.7,0.188499297313544,"true"
"image-keyboard-response",555,449045,"0.0-3.181-1.181","2dsp70rgztke380",658,"163.csv","","null","resources/maskTrios/BT2B.jpg","null","",NA,NA,NA,NA,""
"image-keyboard-response",556,450250,"0.0-3.181-2.181","2dsp70rgztke380",658,"163.csv","","null","resources/images/coin2.png","null","",NA,NA,NA,NA,""
"image-keyboard-response",557,450832,"0.0-3.182-0.182","2dsp70rgztke380",658,"163.csv","","579.9000000357628","resources/trios/L1T4A1.jpg","38","restless",0.6,0.3,0.7,0.904272872727693,"false"
"image-keyboard-response",558,451235,"0.0-3.182-1.182","2dsp70rgztke380",658,"163.csv","","null","resources/maskTrios/BT4B.jpg","null","",NA,NA,NA,NA,""
"image-keyboard-response",559,452442,"0.0-3.182-2.182","2dsp70rgztke380",658,"163.csv","","null","resources/images/fishbone.png","null","",NA,NA,NA,NA,""
"image-keyboard-response",560,452530,"0.0-3.183-0.183","2dsp70rgztke380",658,"163.csv","","86.60000002384186","resources/trios/L1T4A2.jpg","38","restless",0.6,0.3,0.7,0.760666903010989,"false"
"image-keyboard-response",561,452937,"0.0-3.183-1.183","2dsp70rgztke380",658,"163.csv","","null","resources/maskTrios/BT4B.jpg","null","",NA,NA,NA,NA,""
"image-keyboard-response",562,454140,"0.0-3.183-2.183","2dsp70rgztke380",658,"163.csv","","null","resources/images/fishbone.png","null","",NA,NA,NA,NA,""
"image-keyboard-response",563,456845,"0.0-3.184-0.184","2dsp70rgztke380",658,"163.csv","","2703","resources/trios/L1T4A1.jpg","38","restless",0.6,0.4,0.7,0.0337103248123731,"true"
"image-keyboard-response",564,457249,"0.0-3.184-1.184","2dsp70rgztke380",658,"163.csv","","null","resources/maskTrios/BT4B.jpg","null","",NA,NA,NA,NA,""
"image-keyboard-response",565,458453,"0.0-3.184-2.184","2dsp70rgztke380",658,"163.csv","","null","resources/images/coin2.png","null","",NA,NA,NA,NA,""
"image-keyboard-response",566,459364,"0.0-3.185-0.185","2dsp70rgztke380",658,"163.csv","","909.4000000357628","resources/trios/L2T2A1.jpg","38","restless",0.6,0.4,0.7,0.442206358737379,"false"
"image-keyboard-response",567,459771,"0.0-3.185-1.185","2dsp70rgztke380",658,"163.csv","","null","resources/maskTrios/BT2B.jpg","null","",NA,NA,NA,NA,""
"image-keyboard-response",568,460974,"0.0-3.185-2.185","2dsp70rgztke380",658,"163.csv","","null","resources/images/fishbone.png","null","",NA,NA,NA,NA,""
"image-keyboard-response",569,461417,"0.0-3.186-0.186","2dsp70rgztke380",658,"163.csv","","441.5999999642372","resources/trios/L1T4A1.jpg","38","restless",0.6,0.4,0.7,0.211007262777746,"true"
"image-keyboard-response",570,461820,"0.0-3.186-1.186","2dsp70rgztke380",658,"163.csv","","null","resources/maskTrios/BT4B.jpg","null","",NA,NA,NA,NA,""
"image-keyboard-response",571,463027,"0.0-3.186-2.186","2dsp70rgztke380",658,"163.csv","","null","resources/images/coin2.png","null","",NA,NA,NA,NA,""
"image-keyboard-response",572,463370,"0.0-3.187-0.187","2dsp70rgztke380",658,"163.csv","","341.2000000476837","resources/trios/L1T2A1.jpg","38","restless",0.5,0.4,0.8,0.0609266838219453,"true"
"image-keyboard-response",573,463777,"0.0-3.187-1.187","2dsp70rgztke380",658,"163.csv","","null","resources/maskTrios/BT2B.jpg","null","",NA,NA,NA,NA,""
"image-keyboard-response",574,464984,"0.0-3.187-2.187","2dsp70rgztke380",658,"163.csv","","null","resources/images/coin2.png","null","",NA,NA,NA,NA,""
"image-keyboard-response",575,465063,"0.0-3.188-0.188","2dsp70rgztke380",658,"163.csv","","77.60000002384186","resources/trios/L1T4A2.jpg","38","restless",0.5,0.4,0.8,0.79896086924217,"false"
"image-keyboard-response",576,465470,"0.0-3.188-1.188","2dsp70rgztke380",658,"163.csv","","null","resources/maskTrios/BT4B.jpg","null","",NA,NA,NA,NA,""
"image-keyboard-response",577,466674,"0.0-3.188-2.188","2dsp70rgztke380",658,"163.csv","","null","resources/images/fishbone.png","null","",NA,NA,NA,NA,""
"image-keyboard-response",578,467310,"0.0-3.189-0.189","2dsp70rgztke380",658,"163.csv","","635","resources/trios/L1T2A1.jpg","38","restless",0.4,0.4,0.8,0.429455104964334,"false"
"image-keyboard-response",579,467714,"0.0-3.189-1.189","2dsp70rgztke380",658,"163.csv","","null","resources/maskTrios/BT2B.jpg","null","",NA,NA,NA,NA,""
"image-keyboard-response",580,468918,"0.0-3.189-2.189","2dsp70rgztke380",658,"163.csv","","null","resources/images/fishbone.png","null","",NA,NA,NA,NA,""
"image-keyboard-response",581,469314,"0.0-3.190-0.190","2dsp70rgztke380",658,"163.csv","","394.30000001192093","resources/trios/L1T4A2.jpg","38","restless",0.4,0.4,0.8,0.0231108886937108,"true"
"image-keyboard-response",582,469717,"0.0-3.190-1.190","2dsp70rgztke380",658,"163.csv","","null","resources/maskTrios/BT4B.jpg","null","",NA,NA,NA,NA,""
"image-keyboard-response",583,470924,"0.0-3.190-2.190","2dsp70rgztke380",658,"163.csv","","null","resources/images/coin2.png","null","",NA,NA,NA,NA,""
"image-keyboard-response",584,471439,"0.0-3.191-0.191","2dsp70rgztke380",658,"163.csv","","513.7000000476837","resources/trios/L2T2A1.jpg","38","restless",0.4,0.4,0.8,0.348717558518556,"true"
"image-keyboard-response",585,471846,"0.0-3.191-1.191","2dsp70rgztke380",658,"163.csv","","null","resources/maskTrios/BT2B.jpg","null","",NA,NA,NA,NA,""
"image-keyboard-response",586,473053,"0.0-3.191-2.191","2dsp70rgztke380",658,"163.csv","","null","resources/images/coin2.png","null","",NA,NA,NA,NA,""
"image-keyboard-response",587,474063,"0.0-3.192-0.192","2dsp70rgztke380",658,"163.csv","","1007.8999999761581","resources/trios/L2T2A1.jpg","38","restless",0.4,0.4,0.8,0.000694383433696766,"true"
"image-keyboard-response",588,474469,"0.0-3.192-1.192","2dsp70rgztke380",658,"163.csv","","null","resources/maskTrios/BT2B.jpg","null","",NA,NA,NA,NA,""
"image-keyboard-response",589,475672,"0.0-3.192-2.192","2dsp70rgztke380",658,"163.csv","","null","resources/images/coin2.png","null","",NA,NA,NA,NA,""
"image-keyboard-response",590,475817,"0.0-3.193-0.193","2dsp70rgztke380",658,"163.csv","","143.4000000357628","resources/trios/L1T4A2.jpg","38","restless",0.4,0.4,0.9,0.839865988448827,"false"
"image-keyboard-response",591,476224,"0.0-3.193-1.193","2dsp70rgztke380",658,"163.csv","","null","resources/maskTrios/BT4B.jpg","null","",NA,NA,NA,NA,""
"image-keyboard-response",592,477431,"0.0-3.193-2.193","2dsp70rgztke380",658,"163.csv","","null","resources/images/fishbone.png","null","",NA,NA,NA,NA,""
"image-keyboard-response",593,478006,"0.0-3.194-0.194","2dsp70rgztke380",658,"163.csv","","573.1000000238419","resources/trios/L1T4A2.jpg","37","restless",0.4,0.4,0.9,0.248198830900274,"true"
"image-keyboard-response",594,478413,"0.0-3.194-1.194","2dsp70rgztke380",658,"163.csv","","null","resources/maskTrios/L1BB.jpg","null","",NA,NA,NA,NA,""
"image-keyboard-response",595,479615,"0.0-3.194-2.194","2dsp70rgztke380",658,"163.csv","","null","resources/images/coin2.png","null","",NA,NA,NA,NA,""
"image-keyboard-response",596,480107,"0.0-3.195-0.195","2dsp70rgztke380",658,"163.csv","","490","resources/trios/L1T2A2.jpg","37","restless",0.4,0.4,0.9,0.103349467450268,"true"
"image-keyboard-response",597,480514,"0.0-3.195-1.195","2dsp70rgztke380",658,"163.csv","","null","resources/maskTrios/L1BB.jpg","null","",NA,NA,NA,NA,""
"image-keyboard-response",598,481721,"0.0-3.195-2.195","2dsp70rgztke380",658,"163.csv","","null","resources/images/coin2.png","null","",NA,NA,NA,NA,""
"image-keyboard-response",599,482122,"0.0-3.196-0.196","2dsp70rgztke380",658,"163.csv","","399.39999997615814","resources/trios/L1T2A1.jpg","37","restless",0.4,0.4,0.9,0.927000613755872,"false"
"image-keyboard-response",600,482529,"0.0-3.196-1.196","2dsp70rgztke380",658,"163.csv","","null","resources/maskTrios/L1BB.jpg","null","",NA,NA,NA,NA,""
"image-keyboard-response",601,483735,"0.0-3.196-2.196","2dsp70rgztke380",658,"163.csv","","null","resources/images/fishbone.png","null","",NA,NA,NA,NA,""
"image-keyboard-response",602,484232,"0.0-3.197-0.197","2dsp70rgztke380",658,"163.csv","","494.5","resources/trios/L2T2A2.jpg","37","restless",0.4,0.3,0.8,0.220186395308987,"true"
"image-keyboard-response",603,484639,"0.0-3.197-1.197","2dsp70rgztke380",658,"163.csv","","null","resources/maskTrios/L2BB.jpg","null","",NA,NA,NA,NA,""
"image-keyboard-response",604,485845,"0.0-3.197-2.197","2dsp70rgztke380",658,"163.csv","","null","resources/images/coin2.png","null","",NA,NA,NA,NA,""
"image-keyboard-response",605,486343,"0.0-3.198-0.198","2dsp70rgztke380",658,"163.csv","","495.60000002384186","resources/trios/L2T4A2.jpg","37","restless",0.4,0.2,0.7,0.214839439401864,"true"
