"trial_type","trial_index","time_elapsed","internal_node_id","subject","participantCode","walkNumber","success","rt","stimulus","key_press","test_part","leftProb","midProb","rightProb","generatedNum","correct"
"pavlovia",0,1266,"0.0-0.0","nbx2wnd7k75h49q",354,"71.csv","","","","","",NA,NA,NA,NA,""
"fullscreen",1,6101,"0.0-1.0","nbx2wnd7k75h49q",354,"71.csv","true","","","","",NA,NA,NA,NA,""
"html-keyboard-response",2,18609,"0.0-2.0-0.0","nbx2wnd7k75h49q",354,"71.csv","","12507","<p><font size='6'>Arrrgh!</p></font><p>Can you be the best pirate? Try to find lots of gold! But beware, some islands have more gold than others, and over time, the island with the most gold may change. Can YOU figure it out? </p><font size='6'>GOOD LUCK, CAPTAIN!!!</font><p>Press any key to begin</p>","32","",NA,NA,NA,NA,""
"image-keyboard-response",3,21614,"0.0-2.0-1.0","nbx2wnd7k75h49q",354,"71.csv","","null","resources/image_sets/111.png","null","",NA,NA,NA,NA,""
"image-keyboard-response",4,34521,"0.0-2.0-2.0","nbx2wnd7k75h49q",354,"71.csv","","12906","resources/image_sets/left_highlight.png","37","",NA,NA,NA,NA,""
"image-keyboard-response",5,38423,"0.0-2.0-3.0","nbx2wnd7k75h49q",354,"71.csv","","3900.5999999940395","resources/image_sets/mid_highlight.png","38","",NA,NA,NA,NA,""
"image-keyboard-response",6,39838,"0.0-2.0-4.0","nbx2wnd7k75h49q",354,"71.csv","","1415.1000000089407","resources/image_sets/right_highlight.png","39","",NA,NA,NA,NA,""
"image-keyboard-response",7,46142,"0.0-2.0-5.0","nbx2wnd7k75h49q",354,"71.csv","","6302.699999988079","resources/image_sets/111.png","13","",NA,NA,NA,NA,""
"image-keyboard-response",8,51007,"0.0-2.0-6.0","nbx2wnd7k75h49q",354,"71.csv","","4863.899999991059","resources/images/coin2.png","13","",NA,NA,NA,NA,""
"image-keyboard-response",9,54302,"0.0-2.0-7.0","nbx2wnd7k75h49q",354,"71.csv","","3294.6000000089407","resources/images/fishbone.png","13","",NA,NA,NA,NA,""
"html-keyboard-response",10,64239,"0.0-2.0-8.0","nbx2wnd7k75h49q",354,"71.csv","","9936.79999999702","<p>Your first journey will be a long one, but you will get a well deserved break at the end</p><p>After the break you will have four more journeys, but each will be much shorter than the first, and you will have breaks in between each</p><p>Press Enter to begin</p>","13","",NA,NA,NA,NA,""
"image-keyboard-response",11,69062,"0.0-3.0-0.0","nbx2wnd7k75h49q",354,"71.csv","","4821.5","resources/trios/L2T2A2.jpg","37","restless",0.3,0.9,0.7,0.599130668970653,"false"
"image-keyboard-response",12,69470,"0.0-3.0-1.0","nbx2wnd7k75h49q",354,"71.csv","","null","resources/maskTrios/L2BB.jpg","null","",NA,NA,NA,NA,""
"image-keyboard-response",13,70676,"0.0-3.0-2.0","nbx2wnd7k75h49q",354,"71.csv","","null","resources/images/fishbone.png","null","",NA,NA,NA,NA,""
"image-keyboard-response",14,72557,"0.0-3.1-0.1","nbx2wnd7k75h49q",354,"71.csv","","1879.7999999970198","resources/trios/L2T2A1.jpg","38","restless",0.3,0.9,0.7,0.974645241968455,"false"
"image-keyboard-response",15,72964,"0.0-3.1-1.1","nbx2wnd7k75h49q",354,"71.csv","","null","resources/maskTrios/BT2B.jpg","null","",NA,NA,NA,NA,""
"image-keyboard-response",16,74170,"0.0-3.1-2.1","nbx2wnd7k75h49q",354,"71.csv","","null","resources/images/fishbone.png","null","",NA,NA,NA,NA,""
"image-keyboard-response",17,75110,"0.0-3.2-0.2","nbx2wnd7k75h49q",354,"71.csv","","938.3999999910593","resources/trios/L2T2A2.jpg","39","restless",0.3,0.9,0.7,0.59347998271263,"true"
"image-keyboard-response",18,75516,"0.0-3.2-1.2","nbx2wnd7k75h49q",354,"71.csv","","null","resources/maskTrios/BBA2.jpg","null","",NA,NA,NA,NA,""
"image-keyboard-response",19,76723,"0.0-3.2-2.2","nbx2wnd7k75h49q",354,"71.csv","","null","resources/images/coin2.png","null","",NA,NA,NA,NA,""
"image-keyboard-response",20,83008,"0.0-3.3-0.3","nbx2wnd7k75h49q",354,"71.csv","","6283.79999999702","resources/trios/L2T2A2.jpg","39","restless",0.3,0.9,0.7,0.959016200267128,"false"
"image-keyboard-response",21,83411,"0.0-3.3-1.3","nbx2wnd7k75h49q",354,"71.csv","","null","resources/maskTrios/BBA2.jpg","null","",NA,NA,NA,NA,""
"image-keyboard-response",22,84615,"0.0-3.3-2.3","nbx2wnd7k75h49q",354,"71.csv","","null","resources/images/fishbone.png","null","",NA,NA,NA,NA,""
"image-keyboard-response",23,86181,"0.0-3.4-0.4","nbx2wnd7k75h49q",354,"71.csv","","1565.1000000089407","resources/trios/L2T4A1.jpg","38","restless",0.3,0.9,0.7,0.736904708842928,"true"
"image-keyboard-response",24,86587,"0.0-3.4-1.4","nbx2wnd7k75h49q",354,"71.csv","","null","resources/maskTrios/BT4B.jpg","null","",NA,NA,NA,NA,""
"image-keyboard-response",25,87790,"0.0-3.4-2.4","nbx2wnd7k75h49q",354,"71.csv","","null","resources/images/coin2.png","null","",NA,NA,NA,NA,""
"image-keyboard-response",26,89339,"0.0-3.5-0.5","nbx2wnd7k75h49q",354,"71.csv","","1548.0999999940395","resources/trios/L2T4A1.jpg","37","restless",0.3,0.9,0.7,0.663677089329479,"false"
"image-keyboard-response",27,89745,"0.0-3.5-1.5","nbx2wnd7k75h49q",354,"71.csv","","null","resources/maskTrios/L2BB.jpg","null","",NA,NA,NA,NA,""
"image-keyboard-response",28,90951,"0.0-3.5-2.5","nbx2wnd7k75h49q",354,"71.csv","","null","resources/images/fishbone.png","null","",NA,NA,NA,NA,""
"image-keyboard-response",29,91408,"0.0-3.6-0.6","nbx2wnd7k75h49q",354,"71.csv","","455.5","resources/trios/L2T2A2.jpg","38","restless",0.3,0.9,0.7,0.581348735348017,"true"
"image-keyboard-response",30,91810,"0.0-3.6-1.6","nbx2wnd7k75h49q",354,"71.csv","","null","resources/maskTrios/BT2B.jpg","null","",NA,NA,NA,NA,""
"image-keyboard-response",31,93016,"0.0-3.6-2.6","nbx2wnd7k75h49q",354,"71.csv","","null","resources/images/coin2.png","null","",NA,NA,NA,NA,""
"image-keyboard-response",32,98826,"0.0-3.7-0.7","nbx2wnd7k75h49q",354,"71.csv","","5808.5","resources/trios/L2T4A2.jpg","37","restless",0.3,0.9,0.7,0.369091042682603,"false"
"image-keyboard-response",33,99230,"0.0-3.7-1.7","nbx2wnd7k75h49q",354,"71.csv","","null","resources/maskTrios/L2BB.jpg","null","",NA,NA,NA,NA,""
"image-keyboard-response",34,100437,"0.0-3.7-2.7","nbx2wnd7k75h49q",354,"71.csv","","null","resources/images/fishbone.png","null","",NA,NA,NA,NA,""
"image-keyboard-response",35,100793,"0.0-3.8-0.8","nbx2wnd7k75h49q",354,"71.csv","","355","resources/trios/L2T4A2.jpg","38","restless",0.3,0.8,0.7,0.904445941100996,"false"
"image-keyboard-response",36,101197,"0.0-3.8-1.8","nbx2wnd7k75h49q",354,"71.csv","","null","resources/maskTrios/BT4B.jpg","null","",NA,NA,NA,NA,""
"image-keyboard-response",37,102403,"0.0-3.8-2.8","nbx2wnd7k75h49q",354,"71.csv","","null","resources/images/fishbone.png","null","",NA,NA,NA,NA,""
"image-keyboard-response",38,102607,"0.0-3.9-0.9","nbx2wnd7k75h49q",354,"71.csv","","203.30000001192093","resources/trios/L4T2A1.jpg","39","restless",0.3,0.8,0.7,0.987192408422143,"false"
"image-keyboard-response",39,103013,"0.0-3.9-1.9","nbx2wnd7k75h49q",354,"71.csv","","null","resources/maskTrios/BBA1.jpg","null","",NA,NA,NA,NA,""
"image-keyboard-response",40,104220,"0.0-3.9-2.9","nbx2wnd7k75h49q",354,"71.csv","","null","resources/images/fishbone.png","null","",NA,NA,NA,NA,""
"image-keyboard-response",41,106181,"0.0-3.10-0.10","nbx2wnd7k75h49q",354,"71.csv","","1959.7999999970198","resources/trios/L2T4A1.jpg","38","restless",0.3,0.8,0.7,0.727595642270233,"true"
"image-keyboard-response",42,106586,"0.0-3.10-1.10","nbx2wnd7k75h49q",354,"71.csv","","null","resources/maskTrios/BT4B.jpg","null","",NA,NA,NA,NA,""
"image-keyboard-response",43,107793,"0.0-3.10-2.10","nbx2wnd7k75h49q",354,"71.csv","","null","resources/images/coin2.png","null","",NA,NA,NA,NA,""
"image-keyboard-response",44,108260,"0.0-3.11-0.11","nbx2wnd7k75h49q",354,"71.csv","","466.29999999701977","resources/trios/L4T4A1.jpg","38","restless",0.3,0.7,0.7,0.0223179842310752,"true"
"image-keyboard-response",45,108663,"0.0-3.11-1.11","nbx2wnd7k75h49q",354,"71.csv","","null","resources/maskTrios/BT4B.jpg","null","",NA,NA,NA,NA,""
"image-keyboard-response",46,109865,"0.0-3.11-2.11","nbx2wnd7k75h49q",354,"71.csv","","null","resources/images/coin2.png","null","",NA,NA,NA,NA,""
"image-keyboard-response",47,110281,"0.0-3.12-0.12","nbx2wnd7k75h49q",354,"71.csv","","414.3999999910593","resources/trios/L4T4A1.jpg","38","restless",0.3,0.7,0.7,0.471934080227824,"true"
"image-keyboard-response",48,110686,"0.0-3.12-1.12","nbx2wnd7k75h49q",354,"71.csv","","null","resources/maskTrios/BT4B.jpg","null","",NA,NA,NA,NA,""
"image-keyboard-response",49,111892,"0.0-3.12-2.12","nbx2wnd7k75h49q",354,"71.csv","","null","resources/images/coin2.png","null","",NA,NA,NA,NA,""
"image-keyboard-response",50,112261,"0.0-3.13-0.13","nbx2wnd7k75h49q",354,"71.csv","","367.8999999910593","resources/trios/L2T4A2.jpg","38","restless",0.3,0.7,0.7,0.630579950827337,"true"
"image-keyboard-response",51,112668,"0.0-3.13-1.13","nbx2wnd7k75h49q",354,"71.csv","","null","resources/maskTrios/BT4B.jpg","null","",NA,NA,NA,NA,""
"image-keyboard-response",52,113874,"0.0-3.13-2.13","nbx2wnd7k75h49q",354,"71.csv","","null","resources/images/coin2.png","null","",NA,NA,NA,NA,""
"image-keyboard-response",53,114859,"0.0-3.14-0.14","nbx2wnd7k75h49q",354,"71.csv","","984","resources/trios/L4T2A1.jpg","38","restless",0.3,0.7,0.7,0.254835113145337,"true"
"image-keyboard-response",54,115262,"0.0-3.14-1.14","nbx2wnd7k75h49q",354,"71.csv","","null","resources/maskTrios/BT2B.jpg","null","",NA,NA,NA,NA,""
"image-keyboard-response",55,116468,"0.0-3.14-2.14","nbx2wnd7k75h49q",354,"71.csv","","null","resources/images/coin2.png","null","",NA,NA,NA,NA,""
"image-keyboard-response",56,116790,"0.0-3.15-0.15","nbx2wnd7k75h49q",354,"71.csv","","321","resources/trios/L4T4A1.jpg","38","restless",0.3,0.7,0.8,0.548458901303817,"true"
"image-keyboard-response",57,117195,"0.0-3.15-1.15","nbx2wnd7k75h49q",354,"71.csv","","null","resources/maskTrios/BT4B.jpg","null","",NA,NA,NA,NA,""
"image-keyboard-response",58,118401,"0.0-3.15-2.15","nbx2wnd7k75h49q",354,"71.csv","","null","resources/images/coin2.png","null","",NA,NA,NA,NA,""
"image-keyboard-response",59,118576,"0.0-3.16-0.16","nbx2wnd7k75h49q",354,"71.csv","","172.8999999910593","resources/trios/L2T2A1.jpg","38","restless",0.3,0.6,0.8,0.578033999458906,"true"
"image-keyboard-response",60,118977,"0.0-3.16-1.16","nbx2wnd7k75h49q",354,"71.csv","","null","resources/maskTrios/BT2B.jpg","null","",NA,NA,NA,NA,""
"image-keyboard-response",61,120180,"0.0-3.16-2.16","nbx2wnd7k75h49q",354,"71.csv","","null","resources/images/coin2.png","null","",NA,NA,NA,NA,""
"image-keyboard-response",62,121033,"0.0-3.17-0.17","nbx2wnd7k75h49q",354,"71.csv","","851.7000000029802","resources/trios/L4T2A1.jpg","38","restless",0.3,0.6,0.7,0.948397437657705,"false"
"image-keyboard-response",63,121437,"0.0-3.17-1.17","nbx2wnd7k75h49q",354,"71.csv","","null","resources/maskTrios/BT2B.jpg","null","",NA,NA,NA,NA,""
"image-keyboard-response",64,122644,"0.0-3.17-2.17","nbx2wnd7k75h49q",354,"71.csv","","null","resources/images/fishbone.png","null","",NA,NA,NA,NA,""
"image-keyboard-response",65,122923,"0.0-3.18-0.18","nbx2wnd7k75h49q",354,"71.csv","","278.09999999403954","resources/trios/L2T2A1.jpg","37","restless",0.3,0.6,0.6,0.756659336565772,"false"
"image-keyboard-response",66,123328,"0.0-3.18-1.18","nbx2wnd7k75h49q",354,"71.csv","","null","resources/maskTrios/L2BB.jpg","null","",NA,NA,NA,NA,""
"image-keyboard-response",67,124534,"0.0-3.18-2.18","nbx2wnd7k75h49q",354,"71.csv","","null","resources/images/fishbone.png","null","",NA,NA,NA,NA,""
"image-keyboard-response",68,124761,"0.0-3.19-0.19","nbx2wnd7k75h49q",354,"71.csv","","225.90000000596046","resources/trios/L4T4A1.jpg","39","restless",0.3,0.6,0.6,0.310078488823105,"true"
"image-keyboard-response",69,125167,"0.0-3.19-1.19","nbx2wnd7k75h49q",354,"71.csv","","null","resources/maskTrios/BBA1.jpg","null","",NA,NA,NA,NA,""
"image-keyboard-response",70,126371,"0.0-3.19-2.19","nbx2wnd7k75h49q",354,"71.csv","","null","resources/images/coin2.png","null","",NA,NA,NA,NA,""
"image-keyboard-response",71,126639,"0.0-3.20-0.20","nbx2wnd7k75h49q",354,"71.csv","","266.59999999403954","resources/trios/L2T2A1.jpg","39","restless",0.4,0.6,0.6,0.428738782603503,"true"
"image-keyboard-response",72,127042,"0.0-3.20-1.20","nbx2wnd7k75h49q",354,"71.csv","","null","resources/maskTrios/BBA1.jpg","null","",NA,NA,NA,NA,""
"image-keyboard-response",73,128248,"0.0-3.20-2.20","nbx2wnd7k75h49q",354,"71.csv","","null","resources/images/coin2.png","null","",NA,NA,NA,NA,""
"image-keyboard-response",74,128390,"0.0-3.21-0.21","nbx2wnd7k75h49q",354,"71.csv","","140.1000000089407","resources/trios/L4T4A2.jpg","39","restless",0.4,0.6,0.6,0.28491168382146,"true"
"image-keyboard-response",75,128796,"0.0-3.21-1.21","nbx2wnd7k75h49q",354,"71.csv","","null","resources/maskTrios/BBA2.jpg","null","",NA,NA,NA,NA,""
"image-keyboard-response",76,129997,"0.0-3.21-2.21","nbx2wnd7k75h49q",354,"71.csv","","null","resources/images/coin2.png","null","",NA,NA,NA,NA,""
"image-keyboard-response",77,130026,"0.0-3.22-0.22","nbx2wnd7k75h49q",354,"71.csv","","27.600000008940697","resources/trios/L2T4A2.jpg","39","restless",0.4,0.6,0.6,0.661372205833197,"false"
"image-keyboard-response",78,130430,"0.0-3.22-1.22","nbx2wnd7k75h49q",354,"71.csv","","null","resources/maskTrios/BBA2.jpg","null","",NA,NA,NA,NA,""
"image-keyboard-response",79,131636,"0.0-3.22-2.22","nbx2wnd7k75h49q",354,"71.csv","","null","resources/images/fishbone.png","null","",NA,NA,NA,NA,""
"image-keyboard-response",80,131979,"0.0-3.23-0.23","nbx2wnd7k75h49q",354,"71.csv","","341.09999999403954","resources/trios/L2T4A2.jpg","38","restless",0.4,0.6,0.6,0.243785902384785,"true"
"image-keyboard-response",81,132384,"0.0-3.23-1.23","nbx2wnd7k75h49q",354,"71.csv","","null","resources/maskTrios/BT4B.jpg","null","",NA,NA,NA,NA,""
"image-keyboard-response",82,133590,"0.0-3.23-2.23","nbx2wnd7k75h49q",354,"71.csv","","null","resources/images/coin2.png","null","",NA,NA,NA,NA,""
"image-keyboard-response",83,134275,"0.0-3.24-0.24","nbx2wnd7k75h49q",354,"71.csv","","683.0999999940395","resources/trios/L4T2A1.jpg","38","restless",0.4,0.5,0.6,0.726857738176468,"false"
"image-keyboard-response",84,134678,"0.0-3.24-1.24","nbx2wnd7k75h49q",354,"71.csv","","null","resources/maskTrios/BT2B.jpg","null","",NA,NA,NA,NA,""
"image-keyboard-response",85,135884,"0.0-3.24-2.24","nbx2wnd7k75h49q",354,"71.csv","","null","resources/images/fishbone.png","null","",NA,NA,NA,NA,""
"image-keyboard-response",86,136117,"0.0-3.25-0.25","nbx2wnd7k75h49q",354,"71.csv","","232.29999999701977","resources/trios/L4T4A2.jpg","37","restless",0.4,0.5,0.6,0.713339720884251,"false"
"image-keyboard-response",87,136520,"0.0-3.25-1.25","nbx2wnd7k75h49q",354,"71.csv","","null","resources/maskTrios/L4BB.jpg","null","",NA,NA,NA,NA,""
"image-keyboard-response",88,137722,"0.0-3.25-2.25","nbx2wnd7k75h49q",354,"71.csv","","null","resources/images/fishbone.png","null","",NA,NA,NA,NA,""
"image-keyboard-response",89,137848,"0.0-3.26-0.26","nbx2wnd7k75h49q",354,"71.csv","","125.30000001192093","resources/trios/L2T2A2.jpg","39","restless",0.4,0.5,0.7,0.00390818360536493,"true"
"image-keyboard-response",90,138253,"0.0-3.26-1.26","nbx2wnd7k75h49q",354,"71.csv","","null","resources/maskTrios/BBA2.jpg","null","",NA,NA,NA,NA,""
"image-keyboard-response",91,139458,"0.0-3.26-2.26","nbx2wnd7k75h49q",354,"71.csv","","null","resources/images/coin2.png","null","",NA,NA,NA,NA,""
"image-keyboard-response",92,139774,"0.0-3.27-0.27","nbx2wnd7k75h49q",354,"71.csv","","315.6000000089407","resources/trios/L2T4A2.jpg","39","restless",0.4,0.5,0.7,0.992996112460607,"false"
"image-keyboard-response",93,140179,"0.0-3.27-1.27","nbx2wnd7k75h49q",354,"71.csv","","null","resources/maskTrios/BBA2.jpg","null","",NA,NA,NA,NA,""
"image-keyboard-response",94,141383,"0.0-3.27-2.27","nbx2wnd7k75h49q",354,"71.csv","","null","resources/images/fishbone.png","null","",NA,NA,NA,NA,""
"image-keyboard-response",95,142026,"0.0-3.28-0.28","nbx2wnd7k75h49q",354,"71.csv","","641.2000000029802","resources/trios/L2T2A2.jpg","38","restless",0.4,0.4,0.7,0.65183113045736,"false"
"image-keyboard-response",96,142428,"0.0-3.28-1.28","nbx2wnd7k75h49q",354,"71.csv","","null","resources/maskTrios/BT2B.jpg","null","",NA,NA,NA,NA,""
"image-keyboard-response",97,143634,"0.0-3.28-2.28","nbx2wnd7k75h49q",354,"71.csv","","null","resources/images/fishbone.png","null","",NA,NA,NA,NA,""
"image-keyboard-response",98,143643,"0.0-3.29-0.29","nbx2wnd7k75h49q",354,"71.csv","","7.700000002980232","resources/trios/L4T4A1.jpg","37","restless",0.4,0.4,0.7,0.991943385041098,"false"
"image-keyboard-response",99,144045,"0.0-3.29-1.29","nbx2wnd7k75h49q",354,"71.csv","","null","resources/maskTrios/L4BB.jpg","null","",NA,NA,NA,NA,""
"image-keyboard-response",100,145248,"0.0-3.29-2.29","nbx2wnd7k75h49q",354,"71.csv","","null","resources/images/fishbone.png","null","",NA,NA,NA,NA,""
"image-keyboard-response",101,145390,"0.0-3.30-0.30","nbx2wnd7k75h49q",354,"71.csv","","141.1000000089407","resources/trios/L2T2A2.jpg","39","restless",0.4,0.3,0.7,0.689224585876091,"true"
"image-keyboard-response",102,145796,"0.0-3.30-1.30","nbx2wnd7k75h49q",354,"71.csv","","null","resources/maskTrios/BBA2.jpg","null","",NA,NA,NA,NA,""
"image-keyboard-response",103,146998,"0.0-3.30-2.30","nbx2wnd7k75h49q",354,"71.csv","","null","resources/images/coin2.png","null","",NA,NA,NA,NA,""
"image-keyboard-response",104,147159,"0.0-3.31-0.31","nbx2wnd7k75h49q",354,"71.csv","","158.6000000089407","resources/trios/L2T4A2.jpg","39","restless",0.4,0.4,0.7,0.821120826118968,"false"
"image-keyboard-response",105,147565,"0.0-3.31-1.31","nbx2wnd7k75h49q",354,"71.csv","","null","resources/maskTrios/BBA2.jpg","null","",NA,NA,NA,NA,""
"image-keyboard-response",106,148768,"0.0-3.31-2.31","nbx2wnd7k75h49q",354,"71.csv","","null","resources/images/fishbone.png","null","",NA,NA,NA,NA,""
"image-keyboard-response",107,149036,"0.0-3.32-0.32","nbx2wnd7k75h49q",354,"71.csv","","267.29999999701977","resources/trios/L4T2A2.jpg","38","restless",0.4,0.4,0.7,0.963689820528002,"false"
"image-keyboard-response",108,149442,"0.0-3.32-1.32","nbx2wnd7k75h49q",354,"71.csv","","null","resources/maskTrios/BT2B.jpg","null","",NA,NA,NA,NA,""
"image-keyboard-response",109,150649,"0.0-3.32-2.32","nbx2wnd7k75h49q",354,"71.csv","","null","resources/images/fishbone.png","null","",NA,NA,NA,NA,""
"image-keyboard-response",110,150685,"0.0-3.33-0.33","nbx2wnd7k75h49q",354,"71.csv","","35.29999999701977","resources/trios/L2T4A2.jpg","39","restless",0.4,0.4,0.7,0.306887922145072,"true"
"image-keyboard-response",111,151090,"0.0-3.33-1.33","nbx2wnd7k75h49q",354,"71.csv","","null","resources/maskTrios/BBA2.jpg","null","",NA,NA,NA,NA,""
"image-keyboard-response",112,152296,"0.0-3.33-2.33","nbx2wnd7k75h49q",354,"71.csv","","null","resources/images/coin2.png","null","",NA,NA,NA,NA,""
"image-keyboard-response",113,152971,"0.0-3.34-0.34","nbx2wnd7k75h49q",354,"71.csv","","673.7000000029802","resources/trios/L2T4A1.jpg","39","restless",0.4,0.4,0.7,0.941321290260134,"false"
"image-keyboard-response",114,153373,"0.0-3.34-1.34","nbx2wnd7k75h49q",354,"71.csv","","null","resources/maskTrios/BBA1.jpg","null","",NA,NA,NA,NA,""
"image-keyboard-response",115,154579,"0.0-3.34-2.34","nbx2wnd7k75h49q",354,"71.csv","","null","resources/images/fishbone.png","null","",NA,NA,NA,NA,""
"image-keyboard-response",116,155243,"0.0-3.35-0.35","nbx2wnd7k75h49q",354,"71.csv","","662.5999999940395","resources/trios/L2T2A1.jpg","38","restless",0.4,0.4,0.7,0.199332176417968,"true"
"image-keyboard-response",117,155649,"0.0-3.35-1.35","nbx2wnd7k75h49q",354,"71.csv","","null","resources/maskTrios/BT2B.jpg","null","",NA,NA,NA,NA,""
"image-keyboard-response",118,156853,"0.0-3.35-2.35","nbx2wnd7k75h49q",354,"71.csv","","null","resources/images/coin2.png","null","",NA,NA,NA,NA,""
"image-keyboard-response",119,156983,"0.0-3.36-0.36","nbx2wnd7k75h49q",354,"71.csv","","128.90000000596046","resources/trios/L2T2A2.jpg","39","restless",0.4,0.4,0.7,0.885153567991208,"false"
"image-keyboard-response",120,157389,"0.0-3.36-1.36","nbx2wnd7k75h49q",354,"71.csv","","null","resources/maskTrios/BBA2.jpg","null","",NA,NA,NA,NA,""
"image-keyboard-response",121,158595,"0.0-3.36-2.36","nbx2wnd7k75h49q",354,"71.csv","","null","resources/images/fishbone.png","null","",NA,NA,NA,NA,""
"image-keyboard-response",122,158852,"0.0-3.37-0.37","nbx2wnd7k75h49q",354,"71.csv","","255.19999998807907","resources/trios/L2T4A2.jpg","39","restless",0.4,0.4,0.7,0.854356035655779,"false"
"image-keyboard-response",123,159254,"0.0-3.37-1.37","nbx2wnd7k75h49q",354,"71.csv","","null","resources/maskTrios/BBA2.jpg","null","",NA,NA,NA,NA,""
"image-keyboard-response",124,160458,"0.0-3.37-2.37","nbx2wnd7k75h49q",354,"71.csv","","null","resources/images/fishbone.png","null","",NA,NA,NA,NA,""
"image-keyboard-response",125,160671,"0.0-3.38-0.38","nbx2wnd7k75h49q",354,"71.csv","","211.79999999701977","resources/trios/L2T2A2.jpg","38","restless",0.4,0.4,0.7,0.0250536551695719,"true"
"image-keyboard-response",126,161077,"0.0-3.38-1.38","nbx2wnd7k75h49q",354,"71.csv","","null","resources/maskTrios/BT2B.jpg","null","",NA,NA,NA,NA,""
"image-keyboard-response",127,162284,"0.0-3.38-2.38","nbx2wnd7k75h49q",354,"71.csv","","null","resources/images/coin2.png","null","",NA,NA,NA,NA,""
"image-keyboard-response",128,162646,"0.0-3.39-0.39","nbx2wnd7k75h49q",354,"71.csv","","361.30000001192093","resources/trios/L2T2A2.jpg","38","restless",0.4,0.4,0.8,0.647488376210064,"false"
"image-keyboard-response",129,163049,"0.0-3.39-1.39","nbx2wnd7k75h49q",354,"71.csv","","null","resources/maskTrios/BT2B.jpg","null","",NA,NA,NA,NA,""
"image-keyboard-response",130,164251,"0.0-3.39-2.39","nbx2wnd7k75h49q",354,"71.csv","","null","resources/images/fishbone.png","null","",NA,NA,NA,NA,""
"image-keyboard-response",131,164477,"0.0-3.40-0.40","nbx2wnd7k75h49q",354,"71.csv","","225.29999999701977","resources/trios/L4T2A1.jpg","39","restless",0.4,0.4,0.8,0.320840093037861,"true"
"image-keyboard-response",132,164878,"0.0-3.40-1.40","nbx2wnd7k75h49q",354,"71.csv","","null","resources/maskTrios/BBA1.jpg","null","",NA,NA,NA,NA,""
"image-keyboard-response",133,166081,"0.0-3.40-2.40","nbx2wnd7k75h49q",354,"71.csv","","null","resources/images/coin2.png","null","",NA,NA,NA,NA,""
"image-keyboard-response",134,166091,"0.0-3.41-0.41","nbx2wnd7k75h49q",354,"71.csv","","9.099999994039536","resources/trios/L4T4A1.jpg","39","restless",0.3,0.4,0.8,0.0125050703331013,"true"
"image-keyboard-response",135,166493,"0.0-3.41-1.41","nbx2wnd7k75h49q",354,"71.csv","","null","resources/maskTrios/BBA1.jpg","null","",NA,NA,NA,NA,""
"image-keyboard-response",136,167697,"0.0-3.41-2.41","nbx2wnd7k75h49q",354,"71.csv","","null","resources/images/coin2.png","null","",NA,NA,NA,NA,""
"image-keyboard-response",137,168076,"0.0-3.42-0.42","nbx2wnd7k75h49q",354,"71.csv","","376.8999999910593","resources/trios/L4T2A1.jpg","39","restless",0.3,0.5,0.8,0.698906490397174,"true"
"image-keyboard-response",138,168477,"0.0-3.42-1.42","nbx2wnd7k75h49q",354,"71.csv","","null","resources/maskTrios/BBA1.jpg","null","",NA,NA,NA,NA,""
"image-keyboard-response",139,169680,"0.0-3.42-2.42","nbx2wnd7k75h49q",354,"71.csv","","null","resources/images/coin2.png","null","",NA,NA,NA,NA,""
"image-keyboard-response",140,169814,"0.0-3.43-0.43","nbx2wnd7k75h49q",354,"71.csv","","133.70000000298023","resources/trios/L4T4A2.jpg","39","restless",0.3,0.5,0.8,0.925904047966693,"false"
"image-keyboard-response",141,170221,"0.0-3.43-1.43","nbx2wnd7k75h49q",354,"71.csv","","null","resources/maskTrios/BBA2.jpg","null","",NA,NA,NA,NA,""
"image-keyboard-response",142,171426,"0.0-3.43-2.43","nbx2wnd7k75h49q",354,"71.csv","","null","resources/images/fishbone.png","null","",NA,NA,NA,NA,""
"image-keyboard-response",143,173247,"0.0-3.44-0.44","nbx2wnd7k75h49q",354,"71.csv","","1820.2000000029802","resources/trios/L4T2A1.jpg","38","restless",0.3,0.5,0.8,0.0757559251179036,"true"
"image-keyboard-response",144,173652,"0.0-3.44-1.44","nbx2wnd7k75h49q",354,"71.csv","","null","resources/maskTrios/BT2B.jpg","null","",NA,NA,NA,NA,""
"image-keyboard-response",145,174858,"0.0-3.44-2.44","nbx2wnd7k75h49q",354,"71.csv","","null","resources/images/coin2.png","null","",NA,NA,NA,NA,""
"image-keyboard-response",146,175264,"0.0-3.45-0.45","nbx2wnd7k75h49q",354,"71.csv","","404.79999999701977","resources/trios/L4T4A2.jpg","38","restless",0.3,0.5,0.9,0.71146750034572,"false"
"image-keyboard-response",147,175670,"0.0-3.45-1.45","nbx2wnd7k75h49q",354,"71.csv","","null","resources/maskTrios/BT4B.jpg","null","",NA,NA,NA,NA,""
"image-keyboard-response",148,176876,"0.0-3.45-2.45","nbx2wnd7k75h49q",354,"71.csv","","null","resources/images/fishbone.png","null","",NA,NA,NA,NA,""
"image-keyboard-response",149,177443,"0.0-3.46-0.46","nbx2wnd7k75h49q",354,"71.csv","","565.7999999970198","resources/trios/L4T4A1.jpg","39","restless",0.3,0.5,0.9,0.13834881106692,"true"
"image-keyboard-response",150,177849,"0.0-3.46-1.46","nbx2wnd7k75h49q",354,"71.csv","","null","resources/maskTrios/BBA1.jpg","null","",NA,NA,NA,NA,""
"image-keyboard-response",151,179053,"0.0-3.46-2.46","nbx2wnd7k75h49q",354,"71.csv","","null","resources/images/coin2.png","null","",NA,NA,NA,NA,""
"image-keyboard-response",152,179380,"0.0-3.47-0.47","nbx2wnd7k75h49q",354,"71.csv","","326.20000000298023","resources/trios/L4T4A1.jpg","38","restless",0.3,0.5,0.9,0.612755876651255,"false"
"image-keyboard-response",153,179786,"0.0-3.47-1.47","nbx2wnd7k75h49q",354,"71.csv","","null","resources/maskTrios/BT4B.jpg","null","",NA,NA,NA,NA,""
"image-keyboard-response",154,180989,"0.0-3.47-2.47","nbx2wnd7k75h49q",354,"71.csv","","null","resources/images/fishbone.png","null","",NA,NA,NA,NA,""
"image-keyboard-response",155,181246,"0.0-3.48-0.48","nbx2wnd7k75h49q",354,"71.csv","","256.40000000596046","resources/trios/L4T2A1.jpg","38","restless",0.4,0.5,0.9,0.841399959885086,"false"
"image-keyboard-response",156,181652,"0.0-3.48-1.48","nbx2wnd7k75h49q",354,"71.csv","","null","resources/maskTrios/BT2B.jpg","null","",NA,NA,NA,NA,""
"image-keyboard-response",157,182858,"0.0-3.48-2.48","nbx2wnd7k75h49q",354,"71.csv","","null","resources/images/fishbone.png","null","",NA,NA,NA,NA,""
"image-keyboard-response",158,183404,"0.0-3.49-0.49","nbx2wnd7k75h49q",354,"71.csv","","545.2000000029802","resources/trios/L2T4A2.jpg","39","restless",0.4,0.5,0.8,0.816184142740407,"false"
"image-keyboard-response",159,183809,"0.0-3.49-1.49","nbx2wnd7k75h49q",354,"71.csv","","null","resources/maskTrios/BBA2.jpg","null","",NA,NA,NA,NA,""
"image-keyboard-response",160,185011,"0.0-3.49-2.49","nbx2wnd7k75h49q",354,"71.csv","","null","resources/images/fishbone.png","null","",NA,NA,NA,NA,""
"image-keyboard-response",161,185786,"0.0-3.50-0.50","nbx2wnd7k75h49q",354,"71.csv","","774.5999999940395","resources/trios/L2T2A2.jpg","38","restless",0.4,0.5,0.7,0.750393941319493,"false"
"image-keyboard-response",162,186189,"0.0-3.50-1.50","nbx2wnd7k75h49q",354,"71.csv","","null","resources/maskTrios/BT2B.jpg","null","",NA,NA,NA,NA,""
"image-keyboard-response",163,187393,"0.0-3.50-2.50","nbx2wnd7k75h49q",354,"71.csv","","null","resources/images/fishbone.png","null","",NA,NA,NA,NA,""
"image-keyboard-response",164,187426,"0.0-3.51-0.51","nbx2wnd7k75h49q",354,"71.csv","","32.29999999701977","resources/trios/L4T4A2.jpg","37","restless",0.4,0.5,0.7,0.383208631376541,"true"
"image-keyboard-response",165,187831,"0.0-3.51-1.51","nbx2wnd7k75h49q",354,"71.csv","","null","resources/maskTrios/L4BB.jpg","null","",NA,NA,NA,NA,""
"image-keyboard-response",166,189037,"0.0-3.51-2.51","nbx2wnd7k75h49q",354,"71.csv","","null","resources/images/coin2.png","null","",NA,NA,NA,NA,""
"image-keyboard-response",167,189195,"0.0-3.52-0.52","nbx2wnd7k75h49q",354,"71.csv","","156.79999999701977","resources/trios/L4T4A2.jpg","37","restless",0.4,0.5,0.7,0.75674227679893,"false"
"image-keyboard-response",168,189600,"0.0-3.52-1.52","nbx2wnd7k75h49q",354,"71.csv","","null","resources/maskTrios/L4BB.jpg","null","",NA,NA,NA,NA,""
"image-keyboard-response",169,190806,"0.0-3.52-2.52","nbx2wnd7k75h49q",354,"71.csv","","null","resources/images/fishbone.png","null","",NA,NA,NA,NA,""
"image-keyboard-response",170,191042,"0.0-3.53-0.53","nbx2wnd7k75h49q",354,"71.csv","","234.5","resources/trios/L4T4A1.jpg","39","restless",0.4,0.5,0.7,0.916406186744275,"false"
"image-keyboard-response",171,191446,"0.0-3.53-1.53","nbx2wnd7k75h49q",354,"71.csv","","null","resources/maskTrios/BBA1.jpg","null","",NA,NA,NA,NA,""
"image-keyboard-response",172,192652,"0.0-3.53-2.53","nbx2wnd7k75h49q",354,"71.csv","","null","resources/images/fishbone.png","null","",NA,NA,NA,NA,""
"image-keyboard-response",173,193269,"0.0-3.54-0.54","nbx2wnd7k75h49q",354,"71.csv","","615.6999999880791","resources/trios/L2T4A1.jpg","38","restless",0.5,0.5,0.7,0.81200240291225,"false"
"image-keyboard-response",174,193672,"0.0-3.54-1.54","nbx2wnd7k75h49q",354,"71.csv","","null","resources/maskTrios/BT4B.jpg","null","",NA,NA,NA,NA,""
"image-keyboard-response",175,194877,"0.0-3.54-2.54","nbx2wnd7k75h49q",354,"71.csv","","null","resources/images/fishbone.png","null","",NA,NA,NA,NA,""
"image-keyboard-response",176,195150,"0.0-3.55-0.55","nbx2wnd7k75h49q",354,"71.csv","","270.90000000596046","resources/trios/L4T2A1.jpg","39","restless",0.5,0.5,0.6,0.855466978456102,"false"
"image-keyboard-response",177,195556,"0.0-3.55-1.55","nbx2wnd7k75h49q",354,"71.csv","","null","resources/maskTrios/BBA1.jpg","null","",NA,NA,NA,NA,""
"image-keyboard-response",178,196757,"0.0-3.55-2.55","nbx2wnd7k75h49q",354,"71.csv","","null","resources/images/fishbone.png","null","",NA,NA,NA,NA,""
"image-keyboard-response",179,197764,"0.0-3.56-0.56","nbx2wnd7k75h49q",354,"71.csv","","1005.7000000029802","resources/trios/L2T2A1.jpg","37","restless",0.5,0.5,0.6,0.281331325387348,"true"
"image-keyboard-response",180,198167,"0.0-3.56-1.56","nbx2wnd7k75h49q",354,"71.csv","","null","resources/maskTrios/L2BB.jpg","null","",NA,NA,NA,NA,""
"image-keyboard-response",181,199373,"0.0-3.56-2.56","nbx2wnd7k75h49q",354,"71.csv","","null","resources/images/coin2.png","null","",NA,NA,NA,NA,""
"image-keyboard-response",182,199688,"0.0-3.57-0.57","nbx2wnd7k75h49q",354,"71.csv","","313.09999999403954","resources/trios/L4T4A2.jpg","37","restless",0.5,0.5,0.6,0.693748195282367,"false"
"image-keyboard-response",183,200094,"0.0-3.57-1.57","nbx2wnd7k75h49q",354,"71.csv","","null","resources/maskTrios/L4BB.jpg","null","",NA,NA,NA,NA,""
"image-keyboard-response",184,201300,"0.0-3.57-2.57","nbx2wnd7k75h49q",354,"71.csv","","null","resources/images/fishbone.png","null","",NA,NA,NA,NA,""
"image-keyboard-response",185,202708,"0.0-3.58-0.58","nbx2wnd7k75h49q",354,"71.csv","","1406.2999999970198","resources/trios/L4T4A2.jpg","38","restless",0.5,0.5,0.6,0.147403219357037,"true"
"image-keyboard-response",186,203111,"0.0-3.58-1.58","nbx2wnd7k75h49q",354,"71.csv","","null","resources/maskTrios/BT4B.jpg","null","",NA,NA,NA,NA,""
"image-keyboard-response",187,204317,"0.0-3.58-2.58","nbx2wnd7k75h49q",354,"71.csv","","null","resources/images/coin2.png","null","",NA,NA,NA,NA,""
"image-keyboard-response",188,204763,"0.0-3.59-0.59","nbx2wnd7k75h49q",354,"71.csv","","444.09999999403954","resources/trios/L4T2A2.jpg","38","restless",0.5,0.5,0.6,0.29976409335657,"true"
"image-keyboard-response",189,205169,"0.0-3.59-1.59","nbx2wnd7k75h49q",354,"71.csv","","null","resources/maskTrios/BT2B.jpg","null","",NA,NA,NA,NA,""
"image-keyboard-response",190,206375,"0.0-3.59-2.59","nbx2wnd7k75h49q",354,"71.csv","","null","resources/images/coin2.png","null","",NA,NA,NA,NA,""
"image-keyboard-response",191,206686,"0.0-3.60-0.60","nbx2wnd7k75h49q",354,"71.csv","","309.79999999701977","resources/trios/L2T2A2.jpg","38","restless",0.5,0.5,0.6,0.510986012256057,"false"
"image-keyboard-response",192,207092,"0.0-3.60-1.60","nbx2wnd7k75h49q",354,"71.csv","","null","resources/maskTrios/BT2B.jpg","null","",NA,NA,NA,NA,""
"image-keyboard-response",193,208295,"0.0-3.60-2.60","nbx2wnd7k75h49q",354,"71.csv","","null","resources/images/fishbone.png","null","",NA,NA,NA,NA,""
"image-keyboard-response",194,208560,"0.0-3.61-0.61","nbx2wnd7k75h49q",354,"71.csv","","263.79999999701977","resources/trios/L4T2A2.jpg","39","restless",0.5,0.5,0.6,0.388561365838636,"true"
"image-keyboard-response",195,208963,"0.0-3.61-1.61","nbx2wnd7k75h49q",354,"71.csv","","null","resources/maskTrios/BBA2.jpg","null","",NA,NA,NA,NA,""
"image-keyboard-response",196,210170,"0.0-3.61-2.61","nbx2wnd7k75h49q",354,"71.csv","","null","resources/images/coin2.png","null","",NA,NA,NA,NA,""
"image-keyboard-response",197,210441,"0.0-3.62-0.62","nbx2wnd7k75h49q",354,"71.csv","","270.40000000596046","resources/trios/L4T4A1.jpg","37","restless",0.5,0.5,0.6,0.454274106884263,"true"
"image-keyboard-response",198,210843,"0.0-3.62-1.62","nbx2wnd7k75h49q",354,"71.csv","","null","resources/maskTrios/L4BB.jpg","null","",NA,NA,NA,NA,""
"image-keyboard-response",199,212049,"0.0-3.62-2.62","nbx2wnd7k75h49q",354,"71.csv","","null","resources/images/coin2.png","null","",NA,NA,NA,NA,""
"image-keyboard-response",200,212213,"0.0-3.63-0.63","nbx2wnd7k75h49q",354,"71.csv","","163.5","resources/trios/L4T2A1.jpg","37","restless",0.5,0.5,0.6,0.404174950726838,"true"
"image-keyboard-response",201,212620,"0.0-3.63-1.63","nbx2wnd7k75h49q",354,"71.csv","","null","resources/maskTrios/L4BB.jpg","null","",NA,NA,NA,NA,""
"image-keyboard-response",202,213823,"0.0-3.63-2.63","nbx2wnd7k75h49q",354,"71.csv","","null","resources/images/coin2.png","null","",NA,NA,NA,NA,""
"image-keyboard-response",203,214126,"0.0-3.64-0.64","nbx2wnd7k75h49q",354,"71.csv","","301.6000000089407","resources/trios/L4T2A2.jpg","38","restless",0.5,0.4,0.6,0.80650123381498,"false"
"image-keyboard-response",204,214528,"0.0-3.64-1.64","nbx2wnd7k75h49q",354,"71.csv","","null","resources/maskTrios/BT2B.jpg","null","",NA,NA,NA,NA,""
"image-keyboard-response",205,215734,"0.0-3.64-2.64","nbx2wnd7k75h49q",354,"71.csv","","null","resources/images/fishbone.png","null","",NA,NA,NA,NA,""
"image-keyboard-response",206,216133,"0.0-3.65-0.65","nbx2wnd7k75h49q",354,"71.csv","","398.09999999403954","resources/trios/L2T4A2.jpg","38","restless",0.5,0.4,0.6,0.0419766951048715,"true"
"image-keyboard-response",207,216538,"0.0-3.65-1.65","nbx2wnd7k75h49q",354,"71.csv","","null","resources/maskTrios/BT4B.jpg","null","",NA,NA,NA,NA,""
"image-keyboard-response",208,217742,"0.0-3.65-2.65","nbx2wnd7k75h49q",354,"71.csv","","null","resources/images/coin2.png","null","",NA,NA,NA,NA,""
"image-keyboard-response",209,218025,"0.0-3.66-0.66","nbx2wnd7k75h49q",354,"71.csv","","282.5","resources/trios/L4T2A1.jpg","38","restless",0.6,0.4,0.6,0.873369690716624,"false"
"image-keyboard-response",210,218428,"0.0-3.66-1.66","nbx2wnd7k75h49q",354,"71.csv","","null","resources/maskTrios/BT2B.jpg","null","",NA,NA,NA,NA,""
"image-keyboard-response",211,219634,"0.0-3.66-2.66","nbx2wnd7k75h49q",354,"71.csv","","null","resources/images/fishbone.png","null","",NA,NA,NA,NA,""
"image-keyboard-response",212,219751,"0.0-3.67-0.67","nbx2wnd7k75h49q",354,"71.csv","","116.09999999403954","resources/trios/L2T4A1.jpg","39","restless",0.6,0.4,0.5,0.974612207317701,"false"
"image-keyboard-response",213,220153,"0.0-3.67-1.67","nbx2wnd7k75h49q",354,"71.csv","","null","resources/maskTrios/BBA1.jpg","null","",NA,NA,NA,NA,""
"image-keyboard-response",214,221359,"0.0-3.67-2.67","nbx2wnd7k75h49q",354,"71.csv","","null","resources/images/fishbone.png","null","",NA,NA,NA,NA,""
"image-keyboard-response",215,221554,"0.0-3.68-0.68","nbx2wnd7k75h49q",354,"71.csv","","194.09999999403954","resources/trios/L4T2A1.jpg","37","restless",0.5,0.4,0.5,0.832277059591316,"false"
"image-keyboard-response",216,221960,"0.0-3.68-1.68","nbx2wnd7k75h49q",354,"71.csv","","null","resources/maskTrios/L4BB.jpg","null","",NA,NA,NA,NA,""
"image-keyboard-response",217,223167,"0.0-3.68-2.68","nbx2wnd7k75h49q",354,"71.csv","","null","resources/images/fishbone.png","null","",NA,NA,NA,NA,""
"image-keyboard-response",218,223316,"0.0-3.69-0.69","nbx2wnd7k75h49q",354,"71.csv","","148.1000000089407","resources/trios/L2T2A2.jpg","38","restless",0.5,0.4,0.4,0.842974964756238,"false"
"image-keyboard-response",219,223722,"0.0-3.69-1.69","nbx2wnd7k75h49q",354,"71.csv","","null","resources/maskTrios/BT2B.jpg","null","",NA,NA,NA,NA,""
"image-keyboard-response",220,224926,"0.0-3.69-2.69","nbx2wnd7k75h49q",354,"71.csv","","null","resources/images/fishbone.png","null","",NA,NA,NA,NA,""
"image-keyboard-response",221,225065,"0.0-3.70-0.70","nbx2wnd7k75h49q",354,"71.csv","","137.29999999701977","resources/trios/L4T2A1.jpg","37","restless",0.5,0.4,0.4,0.635945123515205,"false"
"image-keyboard-response",222,225471,"0.0-3.70-1.70","nbx2wnd7k75h49q",354,"71.csv","","null","resources/maskTrios/L4BB.jpg","null","",NA,NA,NA,NA,""
"image-keyboard-response",223,226674,"0.0-3.70-2.70","nbx2wnd7k75h49q",354,"71.csv","","null","resources/images/fishbone.png","null","",NA,NA,NA,NA,""
"image-keyboard-response",224,226791,"0.0-3.71-0.71","nbx2wnd7k75h49q",354,"71.csv","","115.79999999701977","resources/trios/L2T4A1.jpg","37","restless",0.5,0.4,0.4,0.872638175714745,"false"
"image-keyboard-response",225,227192,"0.0-3.71-1.71","nbx2wnd7k75h49q",354,"71.csv","","null","resources/maskTrios/L2BB.jpg","null","",NA,NA,NA,NA,""
"image-keyboard-response",226,228398,"0.0-3.71-2.71","nbx2wnd7k75h49q",354,"71.csv","","null","resources/images/fishbone.png","null","",NA,NA,NA,NA,""
"image-keyboard-response",227,228440,"0.0-3.72-0.72","nbx2wnd7k75h49q",354,"71.csv","","40.29999999701977","resources/trios/L4T2A2.jpg","39","restless",0.5,0.4,0.4,0.264121955725171,"true"
"image-keyboard-response",228,228844,"0.0-3.72-1.72","nbx2wnd7k75h49q",354,"71.csv","","null","resources/maskTrios/BBA2.jpg","null","",NA,NA,NA,NA,""
"image-keyboard-response",229,230047,"0.0-3.72-2.72","nbx2wnd7k75h49q",354,"71.csv","","null","resources/images/coin2.png","null","",NA,NA,NA,NA,""
"image-keyboard-response",230,230143,"0.0-3.73-0.73","nbx2wnd7k75h49q",354,"71.csv","","94.5","resources/trios/L4T4A2.jpg","39","restless",0.5,0.4,0.3,0.35569791078201,"false"
"image-keyboard-response",231,230549,"0.0-3.73-1.73","nbx2wnd7k75h49q",354,"71.csv","","null","resources/maskTrios/BBA2.jpg","null","",NA,NA,NA,NA,""
"image-keyboard-response",232,231753,"0.0-3.73-2.73","nbx2wnd7k75h49q",354,"71.csv","","null","resources/images/fishbone.png","null","",NA,NA,NA,NA,""
"image-keyboard-response",233,232647,"0.0-3.74-0.74","nbx2wnd7k75h49q",354,"71.csv","","892.7999999970198","resources/trios/L2T4A1.jpg","38","restless",0.5,0.4,0.3,0.668854006703682,"false"
"image-keyboard-response",234,233053,"0.0-3.74-1.74","nbx2wnd7k75h49q",354,"71.csv","","null","resources/maskTrios/BT4B.jpg","null","",NA,NA,NA,NA,""
"image-keyboard-response",235,234255,"0.0-3.74-2.74","nbx2wnd7k75h49q",354,"71.csv","","null","resources/images/fishbone.png","null","",NA,NA,NA,NA,""
"image-keyboard-response",236,234488,"0.0-3.75-0.75","nbx2wnd7k75h49q",354,"71.csv","","232.8999999910593","resources/trios/L2T4A1.jpg","39","restless",0.5,0.4,0.3,0.530553800654947,"false"
"image-keyboard-response",237,234895,"0.0-3.75-1.75","nbx2wnd7k75h49q",354,"71.csv","","null","resources/maskTrios/BBA1.jpg","null","",NA,NA,NA,NA,""
"image-keyboard-response",238,236099,"0.0-3.75-2.75","nbx2wnd7k75h49q",354,"71.csv","","null","resources/images/fishbone.png","null","",NA,NA,NA,NA,""
"image-keyboard-response",239,236470,"0.0-3.76-0.76","nbx2wnd7k75h49q",354,"71.csv","","369.80000001192093","resources/trios/L2T4A1.jpg","37","restless",0.5,0.4,0.3,0.93325561661789,"false"
"image-keyboard-response",240,236877,"0.0-3.76-1.76","nbx2wnd7k75h49q",354,"71.csv","","null","resources/maskTrios/L2BB.jpg","null","",NA,NA,NA,NA,""
"image-keyboard-response",241,238083,"0.0-3.76-2.76","nbx2wnd7k75h49q",354,"71.csv","","null","resources/images/fishbone.png","null","",NA,NA,NA,NA,""
"image-keyboard-response",242,239400,"0.0-3.77-0.77","nbx2wnd7k75h49q",354,"71.csv","","1315.5","resources/trios/L4T4A1.jpg","38","restless",0.5,0.4,0.3,0.311284395792394,"true"
"image-keyboard-response",243,239806,"0.0-3.77-1.77","nbx2wnd7k75h49q",354,"71.csv","","null","resources/maskTrios/BT4B.jpg","null","",NA,NA,NA,NA,""
"image-keyboard-response",244,241011,"0.0-3.77-2.77","nbx2wnd7k75h49q",354,"71.csv","","null","resources/images/coin2.png","null","",NA,NA,NA,NA,""
"image-keyboard-response",245,241211,"0.0-3.78-0.78","nbx2wnd7k75h49q",354,"71.csv","","198.20000000298023","resources/trios/L4T2A2.jpg","38","restless",0.5,0.4,0.3,0.807987154482267,"false"
"image-keyboard-response",246,241615,"0.0-3.78-1.78","nbx2wnd7k75h49q",354,"71.csv","","null","resources/maskTrios/BT2B.jpg","null","",NA,NA,NA,NA,""
"image-keyboard-response",247,242821,"0.0-3.78-2.78","nbx2wnd7k75h49q",354,"71.csv","","null","resources/images/fishbone.png","null","",NA,NA,NA,NA,""
"image-keyboard-response",248,243019,"0.0-3.79-0.79","nbx2wnd7k75h49q",354,"71.csv","","197.29999999701977","resources/trios/L2T2A1.jpg","39","restless",0.5,0.4,0.3,0.845354404649391,"false"
"image-keyboard-response",249,243422,"0.0-3.79-1.79","nbx2wnd7k75h49q",354,"71.csv","","null","resources/maskTrios/BBA1.jpg","null","",NA,NA,NA,NA,""
"image-keyboard-response",250,244628,"0.0-3.79-2.79","nbx2wnd7k75h49q",354,"71.csv","","null","resources/images/fishbone.png","null","",NA,NA,NA,NA,""
"image-keyboard-response",251,244925,"0.0-3.80-0.80","nbx2wnd7k75h49q",354,"71.csv","","296.59999999403954","resources/trios/L2T4A2.jpg","38","restless",0.5,0.4,0.3,0.752951603577712,"false"
"image-keyboard-response",252,245328,"0.0-3.80-1.80","nbx2wnd7k75h49q",354,"71.csv","","null","resources/maskTrios/BT4B.jpg","null","",NA,NA,NA,NA,""
"image-keyboard-response",253,246531,"0.0-3.80-2.80","nbx2wnd7k75h49q",354,"71.csv","","null","resources/images/fishbone.png","null","",NA,NA,NA,NA,""
"image-keyboard-response",254,247461,"0.0-3.81-0.81","nbx2wnd7k75h49q",354,"71.csv","","929.2999999970198","resources/trios/L4T2A2.jpg","37","restless",0.5,0.3,0.3,0.960181373509488,"false"
"image-keyboard-response",255,247865,"0.0-3.81-1.81","nbx2wnd7k75h49q",354,"71.csv","","null","resources/maskTrios/L4BB.jpg","null","",NA,NA,NA,NA,""
"image-keyboard-response",256,249069,"0.0-3.81-2.81","nbx2wnd7k75h49q",354,"71.csv","","null","resources/images/fishbone.png","null","",NA,NA,NA,NA,""
"image-keyboard-response",257,249125,"0.0-3.82-0.82","nbx2wnd7k75h49q",354,"71.csv","","55.400000005960464","resources/trios/L4T4A2.jpg","39","restless",0.5,0.3,0.3,0.56096437428669,"false"
"image-keyboard-response",258,249531,"0.0-3.82-1.82","nbx2wnd7k75h49q",354,"71.csv","","null","resources/maskTrios/BBA2.jpg","null","",NA,NA,NA,NA,""
"image-keyboard-response",259,250738,"0.0-3.82-2.82","nbx2wnd7k75h49q",354,"71.csv","","null","resources/images/fishbone.png","null","",NA,NA,NA,NA,""
"image-keyboard-response",260,251019,"0.0-3.83-0.83","nbx2wnd7k75h49q",354,"71.csv","","280.5","resources/trios/L4T4A1.jpg","38","restless",0.5,0.4,0.4,0.272855718763549,"true"
"image-keyboard-response",261,251426,"0.0-3.83-1.83","nbx2wnd7k75h49q",354,"71.csv","","null","resources/maskTrios/BT4B.jpg","null","",NA,NA,NA,NA,""
"image-keyboard-response",262,252628,"0.0-3.83-2.83","nbx2wnd7k75h49q",354,"71.csv","","null","resources/images/coin2.png","null","",NA,NA,NA,NA,""
"image-keyboard-response",263,252811,"0.0-3.84-0.84","nbx2wnd7k75h49q",354,"71.csv","","182.6000000089407","resources/trios/L4T2A2.jpg","39","restless",0.5,0.4,0.4,0.216689832756675,"true"
"image-keyboard-response",264,253213,"0.0-3.84-1.84","nbx2wnd7k75h49q",354,"71.csv","","null","resources/maskTrios/BBA2.jpg","null","",NA,NA,NA,NA,""
"image-keyboard-response",265,254420,"0.0-3.84-2.84","nbx2wnd7k75h49q",354,"71.csv","","null","resources/images/coin2.png","null","",NA,NA,NA,NA,""
"image-keyboard-response",266,254656,"0.0-3.85-0.85","nbx2wnd7k75h49q",354,"71.csv","","234.90000000596046","resources/trios/L2T2A1.jpg","37","restless",0.5,0.4,0.4,0.823987762449661,"false"
"image-keyboard-response",267,255058,"0.0-3.85-1.85","nbx2wnd7k75h49q",354,"71.csv","","null","resources/maskTrios/L2BB.jpg","null","",NA,NA,NA,NA,""
"image-keyboard-response",268,256264,"0.0-3.85-2.85","nbx2wnd7k75h49q",354,"71.csv","","null","resources/images/fishbone.png","null","",NA,NA,NA,NA,""
"image-keyboard-response",269,256504,"0.0-3.86-0.86","nbx2wnd7k75h49q",354,"71.csv","","238.59999999403954","resources/trios/L4T4A2.jpg","37","restless",0.5,0.4,0.4,0.520817996283847,"false"
"image-keyboard-response",270,256910,"0.0-3.86-1.86","nbx2wnd7k75h49q",354,"71.csv","","null","resources/maskTrios/L4BB.jpg","null","",NA,NA,NA,NA,""
"image-keyboard-response",271,258114,"0.0-3.86-2.86","nbx2wnd7k75h49q",354,"71.csv","","null","resources/images/fishbone.png","null","",NA,NA,NA,NA,""
"image-keyboard-response",272,258309,"0.0-3.87-0.87","nbx2wnd7k75h49q",354,"71.csv","","193.29999999701977","resources/trios/L2T2A1.jpg","37","restless",0.5,0.4,0.4,0.929672342611193,"false"
"image-keyboard-response",273,258712,"0.0-3.87-1.87","nbx2wnd7k75h49q",354,"71.csv","","null","resources/maskTrios/L2BB.jpg","null","",NA,NA,NA,NA,""
"image-keyboard-response",274,259915,"0.0-3.87-2.87","nbx2wnd7k75h49q",354,"71.csv","","null","resources/images/fishbone.png","null","",NA,NA,NA,NA,""
"image-keyboard-response",275,260578,"0.0-3.88-0.88","nbx2wnd7k75h49q",354,"71.csv","","662","resources/trios/L4T2A1.jpg","38","restless",0.5,0.4,0.4,0.324199978820584,"true"
"image-keyboard-response",276,260980,"0.0-3.88-1.88","nbx2wnd7k75h49q",354,"71.csv","","null","resources/maskTrios/BT2B.jpg","null","",NA,NA,NA,NA,""
"image-keyboard-response",277,262182,"0.0-3.88-2.88","nbx2wnd7k75h49q",354,"71.csv","","null","resources/images/coin2.png","null","",NA,NA,NA,NA,""
"image-keyboard-response",278,262398,"0.0-3.89-0.89","nbx2wnd7k75h49q",354,"71.csv","","214.90000000596046","resources/trios/L4T4A1.jpg","39","restless",0.5,0.4,0.4,0.737351125556742,"false"
"image-keyboard-response",279,262803,"0.0-3.89-1.89","nbx2wnd7k75h49q",354,"71.csv","","null","resources/maskTrios/BBA1.jpg","null","",NA,NA,NA,NA,""
"image-keyboard-response",280,264005,"0.0-3.89-2.89","nbx2wnd7k75h49q",354,"71.csv","","null","resources/images/fishbone.png","null","",NA,NA,NA,NA,""
"image-keyboard-response",281,264584,"0.0-3.90-0.90","nbx2wnd7k75h49q",354,"71.csv","","577.5999999940395","resources/trios/L4T4A1.jpg","39","restless",0.5,0.4,0.4,0.302152941444117,"true"
"image-keyboard-response",282,264990,"0.0-3.90-1.90","nbx2wnd7k75h49q",354,"71.csv","","null","resources/maskTrios/BBA1.jpg","null","",NA,NA,NA,NA,""
"image-keyboard-response",283,266194,"0.0-3.90-2.90","nbx2wnd7k75h49q",354,"71.csv","","null","resources/images/coin2.png","null","",NA,NA,NA,NA,""
"image-keyboard-response",284,266301,"0.0-3.91-0.91","nbx2wnd7k75h49q",354,"71.csv","","106","resources/trios/L2T2A1.jpg","39","restless",0.5,0.4,0.4,0.875802279430494,"false"
"image-keyboard-response",285,266703,"0.0-3.91-1.91","nbx2wnd7k75h49q",354,"71.csv","","null","resources/maskTrios/BBA1.jpg","null","",NA,NA,NA,NA,""
"image-keyboard-response",286,267905,"0.0-3.91-2.91","nbx2wnd7k75h49q",354,"71.csv","","null","resources/images/fishbone.png","null","",NA,NA,NA,NA,""
"image-keyboard-response",287,268029,"0.0-3.92-0.92","nbx2wnd7k75h49q",354,"71.csv","","122.90000000596046","resources/trios/L2T4A1.jpg","37","restless",0.5,0.4,0.4,0.238524094523198,"true"
"image-keyboard-response",288,268434,"0.0-3.92-1.92","nbx2wnd7k75h49q",354,"71.csv","","null","resources/maskTrios/L2BB.jpg","null","",NA,NA,NA,NA,""
"image-keyboard-response",289,269640,"0.0-3.92-2.92","nbx2wnd7k75h49q",354,"71.csv","","null","resources/images/coin2.png","null","",NA,NA,NA,NA,""
"image-keyboard-response",290,269768,"0.0-3.93-0.93","nbx2wnd7k75h49q",354,"71.csv","","125.90000000596046","resources/trios/L2T2A1.jpg","39","restless",0.5,0.4,0.3,0.0313162208492315,"true"
"image-keyboard-response",291,270170,"0.0-3.93-1.93","nbx2wnd7k75h49q",354,"71.csv","","null","resources/maskTrios/BBA1.jpg","null","",NA,NA,NA,NA,""
"image-keyboard-response",292,271377,"0.0-3.93-2.93","nbx2wnd7k75h49q",354,"71.csv","","null","resources/images/coin2.png","null","",NA,NA,NA,NA,""
"image-keyboard-response",293,271382,"0.0-3.94-0.94","nbx2wnd7k75h49q",354,"71.csv","","3.7000000029802322","resources/trios/L2T2A1.jpg","39","restless",0.5,0.4,0.2,0.163631384556991,"true"
"image-keyboard-response",294,271788,"0.0-3.94-1.94","nbx2wnd7k75h49q",354,"71.csv","","null","resources/maskTrios/BBA1.jpg","null","",NA,NA,NA,NA,""
"image-keyboard-response",295,272993,"0.0-3.94-2.94","nbx2wnd7k75h49q",354,"71.csv","","null","resources/images/coin2.png","null","",NA,NA,NA,NA,""
"image-keyboard-response",296,273218,"0.0-3.95-0.95","nbx2wnd7k75h49q",354,"71.csv","","223.09999999403954","resources/trios/L4T2A1.jpg","37","restless",0.5,0.4,0.2,0.855216124531651,"false"
"image-keyboard-response",297,273621,"0.0-3.95-1.95","nbx2wnd7k75h49q",354,"71.csv","","null","resources/maskTrios/L4BB.jpg","null","",NA,NA,NA,NA,""
"image-keyboard-response",298,274824,"0.0-3.95-2.95","nbx2wnd7k75h49q",354,"71.csv","","null","resources/images/fishbone.png","null","",NA,NA,NA,NA,""
"image-keyboard-response",299,275007,"0.0-3.96-0.96","nbx2wnd7k75h49q",354,"71.csv","","182.5","resources/trios/L2T2A1.jpg","37","restless",0.5,0.4,0.2,0.572993627695263,"false"
"image-keyboard-response",300,275409,"0.0-3.96-1.96","nbx2wnd7k75h49q",354,"71.csv","","null","resources/maskTrios/L2BB.jpg","null","",NA,NA,NA,NA,""
"image-keyboard-response",301,276614,"0.0-3.96-2.96","nbx2wnd7k75h49q",354,"71.csv","","null","resources/images/fishbone.png","null","",NA,NA,NA,NA,""
"image-keyboard-response",302,276628,"0.0-3.97-0.97","nbx2wnd7k75h49q",354,"71.csv","","13.100000008940697","resources/trios/L2T4A2.jpg","39","restless",0.5,0.4,0.2,0.25416280075673,"false"
"image-keyboard-response",303,277034,"0.0-3.97-1.97","nbx2wnd7k75h49q",354,"71.csv","","null","resources/maskTrios/BBA2.jpg","null","",NA,NA,NA,NA,""
"image-keyboard-response",304,278240,"0.0-3.97-2.97","nbx2wnd7k75h49q",354,"71.csv","","null","resources/images/fishbone.png","null","",NA,NA,NA,NA,""
"image-keyboard-response",305,278311,"0.0-3.98-0.98","nbx2wnd7k75h49q",354,"71.csv","","69.59999999403954","resources/trios/L4T2A1.jpg","37","restless",0.4,0.4,0.2,0.496828080517003,"false"
"image-keyboard-response",306,278715,"0.0-3.98-1.98","nbx2wnd7k75h49q",354,"71.csv","","null","resources/maskTrios/L4BB.jpg","null","",NA,NA,NA,NA,""
"image-keyboard-response",307,279917,"0.0-3.98-2.98","nbx2wnd7k75h49q",354,"71.csv","","null","resources/images/fishbone.png","null","",NA,NA,NA,NA,""
"image-keyboard-response",308,280081,"0.0-3.99-0.99","nbx2wnd7k75h49q",354,"71.csv","","162.79999999701977","resources/trios/L2T2A2.jpg","37","restless",0.4,0.4,0.2,0.227163528023296,"true"
"image-keyboard-response",309,280483,"0.0-3.99-1.99","nbx2wnd7k75h49q",354,"71.csv","","null","resources/maskTrios/L2BB.jpg","null","",NA,NA,NA,NA,""
"image-keyboard-response",310,281686,"0.0-3.99-2.99","nbx2wnd7k75h49q",354,"71.csv","","null","resources/images/coin2.png","null","",NA,NA,NA,NA,""
"image-keyboard-response",311,281699,"0.0-3.100-0.100","nbx2wnd7k75h49q",354,"71.csv","","11.800000011920929","resources/trios/L2T2A2.jpg","37","restless",0.4,0.4,0.2,0.0839916105817009,"true"
"image-keyboard-response",312,282105,"0.0-3.100-1.100","nbx2wnd7k75h49q",354,"71.csv","","null","resources/maskTrios/L2BB.jpg","null","",NA,NA,NA,NA,""
"image-keyboard-response",313,283310,"0.0-3.100-2.100","nbx2wnd7k75h49q",354,"71.csv","","null","resources/images/coin2.png","null","",NA,NA,NA,NA,""
"image-keyboard-response",314,283506,"0.0-3.101-0.101","nbx2wnd7k75h49q",354,"71.csv","","195.19999998807907","resources/trios/L2T2A2.jpg","37","restless",0.4,0.4,0.2,0.611052877968069,"false"
"image-keyboard-response",315,283912,"0.0-3.101-1.101","nbx2wnd7k75h49q",354,"71.csv","","null","resources/maskTrios/L2BB.jpg","null","",NA,NA,NA,NA,""
"image-keyboard-response",316,285115,"0.0-3.101-2.101","nbx2wnd7k75h49q",354,"71.csv","","null","resources/images/fishbone.png","null","",NA,NA,NA,NA,""
"image-keyboard-response",317,285119,"0.0-3.102-0.102","nbx2wnd7k75h49q",354,"71.csv","","1.9000000059604645","resources/trios/L4T4A2.jpg","39","restless",0.4,0.4,0.3,0.583084140711579,"false"
"image-keyboard-response",318,285524,"0.0-3.102-1.102","nbx2wnd7k75h49q",354,"71.csv","","null","resources/maskTrios/BBA2.jpg","null","",NA,NA,NA,NA,""
"image-keyboard-response",319,286728,"0.0-3.102-2.102","nbx2wnd7k75h49q",354,"71.csv","","null","resources/images/fishbone.png","null","",NA,NA,NA,NA,""
"image-keyboard-response",320,286862,"0.0-3.103-0.103","nbx2wnd7k75h49q",354,"71.csv","","133.40000000596046","resources/trios/L2T2A2.jpg","37","restless",0.5,0.4,0.3,0.893455611958741,"false"
"image-keyboard-response",321,287265,"0.0-3.103-1.103","nbx2wnd7k75h49q",354,"71.csv","","null","resources/maskTrios/L2BB.jpg","null","",NA,NA,NA,NA,""
"image-keyboard-response",322,288469,"0.0-3.103-2.103","nbx2wnd7k75h49q",354,"71.csv","","null","resources/images/fishbone.png","null","",NA,NA,NA,NA,""
"image-keyboard-response",323,288520,"0.0-3.104-0.104","nbx2wnd7k75h49q",354,"71.csv","","50.30000001192093","resources/trios/L4T4A2.jpg","37","restless",0.4,0.4,0.3,0.958961769175364,"false"
"image-keyboard-response",324,288924,"0.0-3.104-1.104","nbx2wnd7k75h49q",354,"71.csv","","null","resources/maskTrios/L4BB.jpg","null","",NA,NA,NA,NA,""
"image-keyboard-response",325,290125,"0.0-3.104-2.104","nbx2wnd7k75h49q",354,"71.csv","","null","resources/images/fishbone.png","null","",NA,NA,NA,NA,""
"image-keyboard-response",326,290206,"0.0-3.105-0.105","nbx2wnd7k75h49q",354,"71.csv","","79.5","resources/trios/L4T4A1.jpg","39","restless",0.4,0.3,0.3,0.391472921558163,"false"
"image-keyboard-response",327,290607,"0.0-3.105-1.105","nbx2wnd7k75h49q",354,"71.csv","","null","resources/maskTrios/BBA1.jpg","null","",NA,NA,NA,NA,""
"image-keyboard-response",328,291809,"0.0-3.105-2.105","nbx2wnd7k75h49q",354,"71.csv","","null","resources/images/fishbone.png","null","",NA,NA,NA,NA,""
"image-keyboard-response",329,291884,"0.0-3.106-0.106","nbx2wnd7k75h49q",354,"71.csv","","74.09999999403954","resources/trios/L2T4A2.jpg","37","restless",0.4,0.3,0.3,0.479216198522747,"false"
"image-keyboard-response",330,292285,"0.0-3.106-1.106","nbx2wnd7k75h49q",354,"71.csv","","null","resources/maskTrios/L2BB.jpg","null","",NA,NA,NA,NA,""
"image-keyboard-response",331,293488,"0.0-3.106-2.106","nbx2wnd7k75h49q",354,"71.csv","","null","resources/images/fishbone.png","null","",NA,NA,NA,NA,""
"image-keyboard-response",332,293677,"0.0-3.107-0.107","nbx2wnd7k75h49q",354,"71.csv","","187.70000000298023","resources/trios/L4T4A1.jpg","39","restless",0.4,0.3,0.3,0.573368021496971,"false"
"image-keyboard-response",333,294080,"0.0-3.107-1.107","nbx2wnd7k75h49q",354,"71.csv","","null","resources/maskTrios/BBA1.jpg","null","",NA,NA,NA,NA,""
"image-keyboard-response",334,295282,"0.0-3.107-2.107","nbx2wnd7k75h49q",354,"71.csv","","null","resources/images/fishbone.png","null","",NA,NA,NA,NA,""
"image-keyboard-response",335,295383,"0.0-3.108-0.108","nbx2wnd7k75h49q",354,"71.csv","","99.5","resources/trios/L4T4A1.jpg","38","restless",0.3,0.3,0.4,0.991820578772331,"false"
"image-keyboard-response",336,295787,"0.0-3.108-1.108","nbx2wnd7k75h49q",354,"71.csv","","null","resources/maskTrios/BT4B.jpg","null","",NA,NA,NA,NA,""
"image-keyboard-response",337,296993,"0.0-3.108-2.108","nbx2wnd7k75h49q",354,"71.csv","","null","resources/images/fishbone.png","null","",NA,NA,NA,NA,""
"image-keyboard-response",338,297161,"0.0-3.109-0.109","nbx2wnd7k75h49q",354,"71.csv","","166.8999999910593","resources/trios/L4T4A1.jpg","37","restless",0.3,0.3,0.4,0.21561701869173,"true"
"image-keyboard-response",339,297565,"0.0-3.109-1.109","nbx2wnd7k75h49q",354,"71.csv","","null","resources/maskTrios/L4BB.jpg","null","",NA,NA,NA,NA,""
"image-keyboard-response",340,298768,"0.0-3.109-2.109","nbx2wnd7k75h49q",354,"71.csv","","null","resources/images/coin2.png","null","",NA,NA,NA,NA,""
"image-keyboard-response",341,298807,"0.0-3.110-0.110","nbx2wnd7k75h49q",354,"71.csv","","38.099999994039536","resources/trios/L2T4A2.jpg","39","restless",0.3,0.3,0.4,0.990822437936993,"false"
"image-keyboard-response",342,299211,"0.0-3.110-1.110","nbx2wnd7k75h49q",354,"71.csv","","null","resources/maskTrios/BBA2.jpg","null","",NA,NA,NA,NA,""
"image-keyboard-response",343,300417,"0.0-3.110-2.110","nbx2wnd7k75h49q",354,"71.csv","","null","resources/images/fishbone.png","null","",NA,NA,NA,NA,""
"image-keyboard-response",344,306618,"0.0-3.111-0.111","nbx2wnd7k75h49q",354,"71.csv","","6199.9000000059605","resources/trios/L2T2A2.jpg","39","restless",0.3,0.3,0.4,0.30894627108195,"true"
"image-keyboard-response",345,307021,"0.0-3.111-1.111","nbx2wnd7k75h49q",354,"71.csv","","null","resources/maskTrios/BBA2.jpg","null","",NA,NA,NA,NA,""
"image-keyboard-response",346,308223,"0.0-3.111-2.111","nbx2wnd7k75h49q",354,"71.csv","","null","resources/images/coin2.png","null","",NA,NA,NA,NA,""
"image-keyboard-response",347,308420,"0.0-3.112-0.112","nbx2wnd7k75h49q",354,"71.csv","","195.69999998807907","resources/trios/L4T4A1.jpg","39","restless",0.3,0.3,0.4,0.827047455391908,"false"
"image-keyboard-response",348,308823,"0.0-3.112-1.112","nbx2wnd7k75h49q",354,"71.csv","","null","resources/maskTrios/BBA1.jpg","null","",NA,NA,NA,NA,""
"image-keyboard-response",349,310029,"0.0-3.112-2.112","nbx2wnd7k75h49q",354,"71.csv","","null","resources/images/fishbone.png","null","",NA,NA,NA,NA,""
"image-keyboard-response",350,310107,"0.0-3.113-0.113","nbx2wnd7k75h49q",354,"71.csv","","76.6000000089407","resources/trios/L4T4A1.jpg","38","restless",0.3,0.3,0.4,0.977579147944017,"false"
"image-keyboard-response",351,310509,"0.0-3.113-1.113","nbx2wnd7k75h49q",354,"71.csv","","null","resources/maskTrios/BT4B.jpg","null","",NA,NA,NA,NA,""
"image-keyboard-response",352,311713,"0.0-3.113-2.113","nbx2wnd7k75h49q",354,"71.csv","","null","resources/images/fishbone.png","null","",NA,NA,NA,NA,""
"image-keyboard-response",353,311757,"0.0-3.114-0.114","nbx2wnd7k75h49q",354,"71.csv","","42.70000000298023","resources/trios/L2T4A1.jpg","37","restless",0.3,0.3,0.3,0.807225802338747,"false"
"image-keyboard-response",354,312159,"0.0-3.114-1.114","nbx2wnd7k75h49q",354,"71.csv","","null","resources/maskTrios/L2BB.jpg","null","",NA,NA,NA,NA,""
"image-keyboard-response",355,313365,"0.0-3.114-2.114","nbx2wnd7k75h49q",354,"71.csv","","null","resources/images/fishbone.png","null","",NA,NA,NA,NA,""
"image-keyboard-response",356,313390,"0.0-3.115-0.115","nbx2wnd7k75h49q",354,"71.csv","","24.400000005960464","resources/trios/L4T2A2.jpg","39","restless",0.3,0.3,0.3,0.76620472008422,"false"
"image-keyboard-response",357,313796,"0.0-3.115-1.115","nbx2wnd7k75h49q",354,"71.csv","","null","resources/maskTrios/BBA2.jpg","null","",NA,NA,NA,NA,""
"image-keyboard-response",358,315000,"0.0-3.115-2.115","nbx2wnd7k75h49q",354,"71.csv","","null","resources/images/fishbone.png","null","",NA,NA,NA,NA,""
"image-keyboard-response",359,315063,"0.0-3.116-0.116","nbx2wnd7k75h49q",354,"71.csv","","61.599999994039536","resources/trios/L2T4A1.jpg","39","restless",0.3,0.4,0.3,0.512865507549067,"false"
"image-keyboard-response",360,315469,"0.0-3.116-1.116","nbx2wnd7k75h49q",354,"71.csv","","null","resources/maskTrios/BBA1.jpg","null","",NA,NA,NA,NA,""
"image-keyboard-response",361,316674,"0.0-3.116-2.116","nbx2wnd7k75h49q",354,"71.csv","","null","resources/images/fishbone.png","null","",NA,NA,NA,NA,""
"image-keyboard-response",362,316758,"0.0-3.117-0.117","nbx2wnd7k75h49q",354,"71.csv","","83.29999999701977","resources/trios/L2T2A1.jpg","37","restless",0.3,0.4,0.3,0.546710932179223,"false"
"image-keyboard-response",363,317164,"0.0-3.117-1.117","nbx2wnd7k75h49q",354,"71.csv","","null","resources/maskTrios/L2BB.jpg","null","",NA,NA,NA,NA,""
"image-keyboard-response",364,318370,"0.0-3.117-2.117","nbx2wnd7k75h49q",354,"71.csv","","null","resources/images/fishbone.png","null","",NA,NA,NA,NA,""
"image-keyboard-response",365,318419,"0.0-3.118-0.118","nbx2wnd7k75h49q",354,"71.csv","","48.5","resources/trios/L2T4A2.jpg","37","restless",0.3,0.4,0.3,0.589875074438857,"false"
"image-keyboard-response",366,318821,"0.0-3.118-1.118","nbx2wnd7k75h49q",354,"71.csv","","null","resources/maskTrios/L2BB.jpg","null","",NA,NA,NA,NA,""
"image-keyboard-response",367,320025,"0.0-3.118-2.118","nbx2wnd7k75h49q",354,"71.csv","","null","resources/images/fishbone.png","null","",NA,NA,NA,NA,""
"image-keyboard-response",368,320058,"0.0-3.119-0.119","nbx2wnd7k75h49q",354,"71.csv","","32.3999999910593","resources/trios/L2T4A2.jpg","37","restless",0.3,0.4,0.3,0.904227694152992,"false"
"image-keyboard-response",369,320459,"0.0-3.119-1.119","nbx2wnd7k75h49q",354,"71.csv","","null","resources/maskTrios/L2BB.jpg","null","",NA,NA,NA,NA,""
"image-keyboard-response",370,321665,"0.0-3.119-2.119","nbx2wnd7k75h49q",354,"71.csv","","null","resources/images/fishbone.png","null","",NA,NA,NA,NA,""
"image-keyboard-response",371,321792,"0.0-3.120-0.120","nbx2wnd7k75h49q",354,"71.csv","","125.80000001192093","resources/trios/L4T2A2.jpg","39","restless",0.3,0.4,0.3,0.874244474960218,"false"
"image-keyboard-response",372,322197,"0.0-3.120-1.120","nbx2wnd7k75h49q",354,"71.csv","","null","resources/maskTrios/BBA2.jpg","null","",NA,NA,NA,NA,""
"image-keyboard-response",373,323403,"0.0-3.120-2.120","nbx2wnd7k75h49q",354,"71.csv","","null","resources/images/fishbone.png","null","",NA,NA,NA,NA,""
"image-keyboard-response",374,323509,"0.0-3.121-0.121","nbx2wnd7k75h49q",354,"71.csv","","105.3999999910593","resources/trios/L2T2A1.jpg","39","restless",0.3,0.4,0.3,0.491036184192484,"false"
"image-keyboard-response",375,323911,"0.0-3.121-1.121","nbx2wnd7k75h49q",354,"71.csv","","null","resources/maskTrios/BBA1.jpg","null","",NA,NA,NA,NA,""
"image-keyboard-response",376,325113,"0.0-3.121-2.121","nbx2wnd7k75h49q",354,"71.csv","","null","resources/images/fishbone.png","null","",NA,NA,NA,NA,""
"image-keyboard-response",377,325122,"0.0-3.122-0.122","nbx2wnd7k75h49q",354,"71.csv","","7.600000008940697","resources/trios/L4T4A2.jpg","37","restless",0.3,0.4,0.3,0.392296476142608,"false"
"image-keyboard-response",378,325526,"0.0-3.122-1.122","nbx2wnd7k75h49q",354,"71.csv","","null","resources/maskTrios/L4BB.jpg","null","",NA,NA,NA,NA,""
"image-keyboard-response",379,326728,"0.0-3.122-2.122","nbx2wnd7k75h49q",354,"71.csv","","null","resources/images/fishbone.png","null","",NA,NA,NA,NA,""
"image-keyboard-response",380,326731,"0.0-3.123-0.123","nbx2wnd7k75h49q",354,"71.csv","","1.7999999970197678","resources/trios/L2T4A1.jpg","37","restless",0.3,0.4,0.3,0.700936333408492,"false"
"image-keyboard-response",381,327134,"0.0-3.123-1.123","nbx2wnd7k75h49q",354,"71.csv","","null","resources/maskTrios/L2BB.jpg","null","",NA,NA,NA,NA,""
"image-keyboard-response",382,328340,"0.0-3.123-2.123","nbx2wnd7k75h49q",354,"71.csv","","null","resources/images/fishbone.png","null","",NA,NA,NA,NA,""
"image-keyboard-response",383,328494,"0.0-3.124-0.124","nbx2wnd7k75h49q",354,"71.csv","","153.59999999403954","resources/trios/L2T4A2.jpg","39","restless",0.4,0.4,0.3,0.339399838124955,"false"
"image-keyboard-response",384,328898,"0.0-3.124-1.124","nbx2wnd7k75h49q",354,"71.csv","","null","resources/maskTrios/BBA2.jpg","null","",NA,NA,NA,NA,""
"image-keyboard-response",385,330103,"0.0-3.124-2.124","nbx2wnd7k75h49q",354,"71.csv","","null","resources/images/fishbone.png","null","",NA,NA,NA,NA,""
"image-keyboard-response",386,330182,"0.0-3.125-0.125","nbx2wnd7k75h49q",354,"71.csv","","78.40000000596046","resources/trios/L2T4A1.jpg","37","restless",0.4,0.4,0.3,0.0651145733966649,"true"
"image-keyboard-response",387,330586,"0.0-3.125-1.125","nbx2wnd7k75h49q",354,"71.csv","","null","resources/maskTrios/L2BB.jpg","null","",NA,NA,NA,NA,""
"image-keyboard-response",388,331793,"0.0-3.125-2.125","nbx2wnd7k75h49q",354,"71.csv","","null","resources/images/coin2.png","null","",NA,NA,NA,NA,""
"image-keyboard-response",389,331993,"0.0-3.126-0.126","nbx2wnd7k75h49q",354,"71.csv","","199.5","resources/trios/L2T4A1.jpg","37","restless",0.4,0.4,0.3,0.519308376915163,"false"
"image-keyboard-response",390,332400,"0.0-3.126-1.126","nbx2wnd7k75h49q",354,"71.csv","","null","resources/maskTrios/L2BB.jpg","null","",NA,NA,NA,NA,""
"image-keyboard-response",391,333602,"0.0-3.126-2.126","nbx2wnd7k75h49q",354,"71.csv","","null","resources/images/fishbone.png","null","",NA,NA,NA,NA,""
"image-keyboard-response",392,333790,"0.0-3.127-0.127","nbx2wnd7k75h49q",354,"71.csv","","186.59999999403954","resources/trios/L2T4A2.jpg","37","restless",0.5,0.4,0.3,0.112403544857756,"true"
"image-keyboard-response",393,334193,"0.0-3.127-1.127","nbx2wnd7k75h49q",354,"71.csv","","null","resources/maskTrios/L2BB.jpg","null","",NA,NA,NA,NA,""
"image-keyboard-response",394,335400,"0.0-3.127-2.127","nbx2wnd7k75h49q",354,"71.csv","","null","resources/images/coin2.png","null","",NA,NA,NA,NA,""
"image-keyboard-response",395,335583,"0.0-3.128-0.128","nbx2wnd7k75h49q",354,"71.csv","","182","resources/trios/L2T4A2.jpg","39","restless",0.5,0.4,0.3,0.500550667667646,"false"
"image-keyboard-response",396,335989,"0.0-3.128-1.128","nbx2wnd7k75h49q",354,"71.csv","","null","resources/maskTrios/BBA2.jpg","null","",NA,NA,NA,NA,""
"image-keyboard-response",397,337194,"0.0-3.128-2.128","nbx2wnd7k75h49q",354,"71.csv","","null","resources/images/fishbone.png","null","",NA,NA,NA,NA,""
"image-keyboard-response",398,337197,"0.0-3.129-0.129","nbx2wnd7k75h49q",354,"71.csv","","1.7999999970197678","resources/trios/L4T2A2.jpg","39","restless",0.5,0.3,0.3,0.654462361181635,"false"
"image-keyboard-response",399,337599,"0.0-3.129-1.129","nbx2wnd7k75h49q",354,"71.csv","","null","resources/maskTrios/BBA2.jpg","null","",NA,NA,NA,NA,""
"image-keyboard-response",400,338803,"0.0-3.129-2.129","nbx2wnd7k75h49q",354,"71.csv","","null","resources/images/fishbone.png","null","",NA,NA,NA,NA,""
"image-keyboard-response",401,339099,"0.0-3.130-0.130","nbx2wnd7k75h49q",354,"71.csv","","295","resources/trios/L2T4A1.jpg","38","restless",0.5,0.4,0.3,0.28319061628531,"true"
"image-keyboard-response",402,339500,"0.0-3.130-1.130","nbx2wnd7k75h49q",354,"71.csv","","null","resources/maskTrios/BT4B.jpg","null","",NA,NA,NA,NA,""
"image-keyboard-response",403,340703,"0.0-3.130-2.130","nbx2wnd7k75h49q",354,"71.csv","","null","resources/images/coin2.png","null","",NA,NA,NA,NA,""
"image-keyboard-response",404,340962,"0.0-3.131-0.131","nbx2wnd7k75h49q",354,"71.csv","","257.29999999701977","resources/trios/L4T4A1.jpg","37","restless",0.5,0.4,0.3,0.643571327132124,"false"
"image-keyboard-response",405,341364,"0.0-3.131-1.131","nbx2wnd7k75h49q",354,"71.csv","","null","resources/maskTrios/L4BB.jpg","null","",NA,NA,NA,NA,""
"image-keyboard-response",406,342568,"0.0-3.131-2.131","nbx2wnd7k75h49q",354,"71.csv","","null","resources/images/fishbone.png","null","",NA,NA,NA,NA,""
"image-keyboard-response",407,342576,"0.0-3.132-0.132","nbx2wnd7k75h49q",354,"71.csv","","6.799999997019768","resources/trios/L2T2A2.jpg","39","restless",0.5,0.4,0.3,0.524729329747917,"false"
"image-keyboard-response",408,342977,"0.0-3.132-1.132","nbx2wnd7k75h49q",354,"71.csv","","null","resources/maskTrios/BBA2.jpg","null","",NA,NA,NA,NA,""
"image-keyboard-response",409,344179,"0.0-3.132-2.132","nbx2wnd7k75h49q",354,"71.csv","","null","resources/images/fishbone.png","null","",NA,NA,NA,NA,""
"image-keyboard-response",410,344370,"0.0-3.133-0.133","nbx2wnd7k75h49q",354,"71.csv","","190.09999999403954","resources/trios/L4T2A2.jpg","39","restless",0.5,0.4,0.3,0.660302310592064,"false"
"image-keyboard-response",411,344775,"0.0-3.133-1.133","nbx2wnd7k75h49q",354,"71.csv","","null","resources/maskTrios/BBA2.jpg","null","",NA,NA,NA,NA,""
"image-keyboard-response",412,345976,"0.0-3.133-2.133","nbx2wnd7k75h49q",354,"71.csv","","null","resources/images/fishbone.png","null","",NA,NA,NA,NA,""
"image-keyboard-response",413,346031,"0.0-3.134-0.134","nbx2wnd7k75h49q",354,"71.csv","","53.29999999701977","resources/trios/L4T4A1.jpg","37","restless",0.6,0.4,0.3,0.91142823324076,"false"
"image-keyboard-response",414,346433,"0.0-3.134-1.134","nbx2wnd7k75h49q",354,"71.csv","","null","resources/maskTrios/L4BB.jpg","null","",NA,NA,NA,NA,""
"image-keyboard-response",415,347634,"0.0-3.134-2.134","nbx2wnd7k75h49q",354,"71.csv","","null","resources/images/fishbone.png","null","",NA,NA,NA,NA,""
"image-keyboard-response",416,347755,"0.0-3.135-0.135","nbx2wnd7k75h49q",354,"71.csv","","119.8999999910593","resources/trios/L4T2A2.jpg","37","restless",0.6,0.4,0.3,0.335020863710408,"true"
"image-keyboard-response",417,348161,"0.0-3.135-1.135","nbx2wnd7k75h49q",354,"71.csv","","null","resources/maskTrios/L4BB.jpg","null","",NA,NA,NA,NA,""
"image-keyboard-response",418,349365,"0.0-3.135-2.135","nbx2wnd7k75h49q",354,"71.csv","","null","resources/images/coin2.png","null","",NA,NA,NA,NA,""
"image-keyboard-response",419,349505,"0.0-3.136-0.136","nbx2wnd7k75h49q",354,"71.csv","","137.79999999701977","resources/trios/L2T2A1.jpg","38","restless",0.6,0.3,0.3,0.276708319969647,"true"
"image-keyboard-response",420,349911,"0.0-3.136-1.136","nbx2wnd7k75h49q",354,"71.csv","","null","resources/maskTrios/BT2B.jpg","null","",NA,NA,NA,NA,""
"image-keyboard-response",421,351114,"0.0-3.136-2.136","nbx2wnd7k75h49q",354,"71.csv","","null","resources/images/coin2.png","null","",NA,NA,NA,NA,""
"image-keyboard-response",422,351351,"0.0-3.137-0.137","nbx2wnd7k75h49q",354,"71.csv","","236.5","resources/trios/L4T4A2.jpg","37","restless",0.7,0.2,0.3,0.576117938171488,"true"
"image-keyboard-response",423,351758,"0.0-3.137-1.137","nbx2wnd7k75h49q",354,"71.csv","","null","resources/maskTrios/L4BB.jpg","null","",NA,NA,NA,NA,""
"image-keyboard-response",424,352964,"0.0-3.137-2.137","nbx2wnd7k75h49q",354,"71.csv","","null","resources/images/coin2.png","null","",NA,NA,NA,NA,""
"image-keyboard-response",425,353039,"0.0-3.138-0.138","nbx2wnd7k75h49q",354,"71.csv","","73","resources/trios/L2T2A1.jpg","39","restless",0.7,0.2,0.3,0.481786289098153,"false"
"image-keyboard-response",426,353440,"0.0-3.138-1.138","nbx2wnd7k75h49q",354,"71.csv","","null","resources/maskTrios/BBA1.jpg","null","",NA,NA,NA,NA,""
"image-keyboard-response",427,354644,"0.0-3.138-2.138","nbx2wnd7k75h49q",354,"71.csv","","null","resources/images/fishbone.png","null","",NA,NA,NA,NA,""
"image-keyboard-response",428,354808,"0.0-3.139-0.139","nbx2wnd7k75h49q",354,"71.csv","","163","resources/trios/L4T2A1.jpg","38","restless",0.7,0.2,0.3,0.222511585551234,"false"
"image-keyboard-response",429,355211,"0.0-3.139-1.139","nbx2wnd7k75h49q",354,"71.csv","","null","resources/maskTrios/BT2B.jpg","null","",NA,NA,NA,NA,""
"image-keyboard-response",430,356417,"0.0-3.139-2.139","nbx2wnd7k75h49q",354,"71.csv","","null","resources/images/fishbone.png","null","",NA,NA,NA,NA,""
"image-keyboard-response",431,356439,"0.0-3.140-0.140","nbx2wnd7k75h49q",354,"71.csv","","20.400000005960464","resources/trios/L4T2A2.jpg","39","restless",0.7,0.2,0.3,0.564318615000285,"false"
"image-keyboard-response",432,356842,"0.0-3.140-1.140","nbx2wnd7k75h49q",354,"71.csv","","null","resources/maskTrios/BBA2.jpg","null","",NA,NA,NA,NA,""
"image-keyboard-response",433,358043,"0.0-3.140-2.140","nbx2wnd7k75h49q",354,"71.csv","","null","resources/images/fishbone.png","null","",NA,NA,NA,NA,""
"image-keyboard-response",434,358149,"0.0-3.141-0.141","nbx2wnd7k75h49q",354,"71.csv","","104.09999999403954","resources/trios/L2T4A1.jpg","37","restless",0.7,0.2,0.3,0.825388281535435,"false"
"image-keyboard-response",435,358552,"0.0-3.141-1.141","nbx2wnd7k75h49q",354,"71.csv","","null","resources/maskTrios/L2BB.jpg","null","",NA,NA,NA,NA,""
"image-keyboard-response",436,359753,"0.0-3.141-2.141","nbx2wnd7k75h49q",354,"71.csv","","null","resources/images/fishbone.png","null","",NA,NA,NA,NA,""
"image-keyboard-response",437,361320,"0.0-3.142-0.142","nbx2wnd7k75h49q",354,"71.csv","","1566.300000011921","resources/trios/L4T4A1.jpg","39","restless",0.8,0.2,0.3,0.132721486137816,"true"
"image-keyboard-response",438,361722,"0.0-3.142-1.142","nbx2wnd7k75h49q",354,"71.csv","","null","resources/maskTrios/BBA1.jpg","null","",NA,NA,NA,NA,""
"image-keyboard-response",439,362925,"0.0-3.142-2.142","nbx2wnd7k75h49q",354,"71.csv","","null","resources/images/coin2.png","null","",NA,NA,NA,NA,""
"image-keyboard-response",440,364543,"0.0-3.143-0.143","nbx2wnd7k75h49q",354,"71.csv","","1616.6000000089407","resources/trios/L2T2A1.jpg","39","restless",0.8,0.2,0.3,0.785097512092481,"false"
"image-keyboard-response",441,364947,"0.0-3.143-1.143","nbx2wnd7k75h49q",354,"71.csv","","null","resources/maskTrios/BBA1.jpg","null","",NA,NA,NA,NA,""
"image-keyboard-response",442,366153,"0.0-3.143-2.143","nbx2wnd7k75h49q",354,"71.csv","","null","resources/images/fishbone.png","null","",NA,NA,NA,NA,""
"image-keyboard-response",443,367744,"0.0-3.144-0.144","nbx2wnd7k75h49q",354,"71.csv","","1589.7999999970198","resources/trios/L2T2A2.jpg","39","restless",0.8,0.2,0.3,0.207691358758008,"true"
"image-keyboard-response",444,368146,"0.0-3.144-1.144","nbx2wnd7k75h49q",354,"71.csv","","null","resources/maskTrios/BBA2.jpg","null","",NA,NA,NA,NA,""
"image-keyboard-response",445,369353,"0.0-3.144-2.144","nbx2wnd7k75h49q",354,"71.csv","","null","resources/images/coin2.png","null","",NA,NA,NA,NA,""
"image-keyboard-response",446,373296,"0.0-3.145-0.145","nbx2wnd7k75h49q",354,"71.csv","","3941.9000000059605","resources/trios/L2T4A2.jpg","39","restless",0.8,0.2,0.3,0.278426012583683,"true"
"image-keyboard-response",447,373699,"0.0-3.145-1.145","nbx2wnd7k75h49q",354,"71.csv","","null","resources/maskTrios/BBA2.jpg","null","",NA,NA,NA,NA,""
"image-keyboard-response",448,374903,"0.0-3.145-2.145","nbx2wnd7k75h49q",354,"71.csv","","null","resources/images/coin2.png","null","",NA,NA,NA,NA,""
"image-keyboard-response",449,374960,"0.0-3.146-0.146","nbx2wnd7k75h49q",354,"71.csv","","55.8999999910593","resources/trios/L4T4A1.jpg","39","restless",0.8,0.2,0.3,0.722098423331387,"false"
"image-keyboard-response",450,375366,"0.0-3.146-1.146","nbx2wnd7k75h49q",354,"71.csv","","null","resources/maskTrios/BBA1.jpg","null","",NA,NA,NA,NA,""
"image-keyboard-response",451,376570,"0.0-3.146-2.146","nbx2wnd7k75h49q",354,"71.csv","","null","resources/images/fishbone.png","null","",NA,NA,NA,NA,""
"image-keyboard-response",452,376611,"0.0-3.147-0.147","nbx2wnd7k75h49q",354,"71.csv","","40","resources/trios/L4T4A1.jpg","39","restless",0.8,0.2,0.3,0.231347189850336,"true"
"image-keyboard-response",453,377012,"0.0-3.147-1.147","nbx2wnd7k75h49q",354,"71.csv","","null","resources/maskTrios/BBA1.jpg","null","",NA,NA,NA,NA,""
"image-keyboard-response",454,378218,"0.0-3.147-2.147","nbx2wnd7k75h49q",354,"71.csv","","null","resources/images/coin2.png","null","",NA,NA,NA,NA,""
"image-keyboard-response",455,378251,"0.0-3.148-0.148","nbx2wnd7k75h49q",354,"71.csv","","31.5","resources/trios/L2T4A2.jpg","39","restless",0.9,0.3,0.3,0.10590449725583,"true"
"image-keyboard-response",456,378652,"0.0-3.148-1.148","nbx2wnd7k75h49q",354,"71.csv","","null","resources/maskTrios/BBA2.jpg","null","",NA,NA,NA,NA,""
"image-keyboard-response",457,379853,"0.0-3.148-2.148","nbx2wnd7k75h49q",354,"71.csv","","null","resources/images/coin2.png","null","",NA,NA,NA,NA,""
"image-keyboard-response",458,379922,"0.0-3.149-0.149","nbx2wnd7k75h49q",354,"71.csv","","67.70000000298023","resources/trios/L4T2A1.jpg","39","restless",0.9,0.4,0.3,0.309374622212382,"false"
"image-keyboard-response",459,380323,"0.0-3.149-1.149","nbx2wnd7k75h49q",354,"71.csv","","null","resources/maskTrios/BBA1.jpg","null","",NA,NA,NA,NA,""
"image-keyboard-response",460,381526,"0.0-3.149-2.149","nbx2wnd7k75h49q",354,"71.csv","","null","resources/images/fishbone.png","null","",NA,NA,NA,NA,""
"image-keyboard-response",461,381567,"0.0-3.150-0.150","nbx2wnd7k75h49q",354,"71.csv","","39.5","resources/trios/L2T2A1.jpg","39","restless",0.9,0.5,0.3,0.153217889203919,"true"
"image-keyboard-response",462,381968,"0.0-3.150-1.150","nbx2wnd7k75h49q",354,"71.csv","","null","resources/maskTrios/BBA1.jpg","null","",NA,NA,NA,NA,""
"image-keyboard-response",463,383174,"0.0-3.150-2.150","nbx2wnd7k75h49q",354,"71.csv","","null","resources/images/coin2.png","null","",NA,NA,NA,NA,""
"image-keyboard-response",464,383303,"0.0-3.151-0.151","nbx2wnd7k75h49q",354,"71.csv","","127.70000000298023","resources/trios/L4T4A1.jpg","39","restless",0.9,0.4,0.3,0.750215719904547,"false"
"image-keyboard-response",465,383709,"0.0-3.151-1.151","nbx2wnd7k75h49q",354,"71.csv","","null","resources/maskTrios/BBA1.jpg","null","",NA,NA,NA,NA,""
"image-keyboard-response",466,384915,"0.0-3.151-2.151","nbx2wnd7k75h49q",354,"71.csv","","null","resources/images/fishbone.png","null","",NA,NA,NA,NA,""
"image-keyboard-response",467,385030,"0.0-3.152-0.152","nbx2wnd7k75h49q",354,"71.csv","","113.20000000298023","resources/trios/L4T4A2.jpg","39","restless",0.9,0.4,0.3,0.922008808013695,"false"
"image-keyboard-response",468,385431,"0.0-3.152-1.152","nbx2wnd7k75h49q",354,"71.csv","","null","resources/maskTrios/BBA2.jpg","null","",NA,NA,NA,NA,""
"image-keyboard-response",469,386634,"0.0-3.152-2.152","nbx2wnd7k75h49q",354,"71.csv","","null","resources/images/fishbone.png","null","",NA,NA,NA,NA,""
"image-keyboard-response",470,386683,"0.0-3.153-0.153","nbx2wnd7k75h49q",354,"71.csv","","47","resources/trios/L4T2A1.jpg","39","restless",0.9,0.4,0.3,0.31586796269574,"false"
"image-keyboard-response",471,387089,"0.0-3.153-1.153","nbx2wnd7k75h49q",354,"71.csv","","null","resources/maskTrios/BBA1.jpg","null","",NA,NA,NA,NA,""
"image-keyboard-response",472,388292,"0.0-3.153-2.153","nbx2wnd7k75h49q",354,"71.csv","","null","resources/images/fishbone.png","null","",NA,NA,NA,NA,""
"image-keyboard-response",473,388463,"0.0-3.154-0.154","nbx2wnd7k75h49q",354,"71.csv","","169.20000000298023","resources/trios/L2T2A2.jpg","39","restless",0.9,0.4,0.3,0.0146763167753761,"true"
"image-keyboard-response",474,388864,"0.0-3.154-1.154","nbx2wnd7k75h49q",354,"71.csv","","null","resources/maskTrios/BBA2.jpg","null","",NA,NA,NA,NA,""
"image-keyboard-response",475,390069,"0.0-3.154-2.154","nbx2wnd7k75h49q",354,"71.csv","","null","resources/images/coin2.png","null","",NA,NA,NA,NA,""
"image-keyboard-response",476,390094,"0.0-3.155-0.155","nbx2wnd7k75h49q",354,"71.csv","","23.5","resources/trios/L2T2A2.jpg","39","restless",0.9,0.4,0.3,0.0577873606530654,"true"
"image-keyboard-response",477,390498,"0.0-3.155-1.155","nbx2wnd7k75h49q",354,"71.csv","","null","resources/maskTrios/BBA2.jpg","null","",NA,NA,NA,NA,""
"image-keyboard-response",478,391701,"0.0-3.155-2.155","nbx2wnd7k75h49q",354,"71.csv","","null","resources/images/coin2.png","null","",NA,NA,NA,NA,""
"image-keyboard-response",479,392772,"0.0-3.156-0.156","nbx2wnd7k75h49q",354,"71.csv","","1070.1000000089407","resources/trios/L4T4A1.jpg","39","restless",0.9,0.4,0.3,0.506012427483278,"false"
"image-keyboard-response",480,393178,"0.0-3.156-1.156","nbx2wnd7k75h49q",354,"71.csv","","null","resources/maskTrios/BBA1.jpg","null","",NA,NA,NA,NA,""
"image-keyboard-response",481,394384,"0.0-3.156-2.156","nbx2wnd7k75h49q",354,"71.csv","","null","resources/images/fishbone.png","null","",NA,NA,NA,NA,""
"image-keyboard-response",482,394401,"0.0-3.157-0.157","nbx2wnd7k75h49q",354,"71.csv","","15.599999994039536","resources/trios/L2T2A2.jpg","39","restless",0.9,0.4,0.4,0.0864503402446388,"true"
"image-keyboard-response",483,394805,"0.0-3.157-1.157","nbx2wnd7k75h49q",354,"71.csv","","null","resources/maskTrios/BBA2.jpg","null","",NA,NA,NA,NA,""
"image-keyboard-response",484,396012,"0.0-3.157-2.157","nbx2wnd7k75h49q",354,"71.csv","","null","resources/images/coin2.png","null","",NA,NA,NA,NA,""
"image-keyboard-response",485,396114,"0.0-3.158-0.158","nbx2wnd7k75h49q",354,"71.csv","","101.5","resources/trios/L4T4A1.jpg","39","restless",0.9,0.4,0.4,0.587195622134924,"false"
"image-keyboard-response",486,396520,"0.0-3.158-1.158","nbx2wnd7k75h49q",354,"71.csv","","null","resources/maskTrios/BBA1.jpg","null","",NA,NA,NA,NA,""
"image-keyboard-response",487,397722,"0.0-3.158-2.158","nbx2wnd7k75h49q",354,"71.csv","","null","resources/images/fishbone.png","null","",NA,NA,NA,NA,""
"image-keyboard-response",488,397884,"0.0-3.159-0.159","nbx2wnd7k75h49q",354,"71.csv","","161.5","resources/trios/L2T2A2.jpg","39","restless",0.9,0.4,0.5,0.796502574293141,"false"
"image-keyboard-response",489,398288,"0.0-3.159-1.159","nbx2wnd7k75h49q",354,"71.csv","","null","resources/maskTrios/BBA2.jpg","null","",NA,NA,NA,NA,""
"image-keyboard-response",490,399493,"0.0-3.159-2.159","nbx2wnd7k75h49q",354,"71.csv","","null","resources/images/fishbone.png","null","",NA,NA,NA,NA,""
"image-keyboard-response",491,399728,"0.0-3.160-0.160","nbx2wnd7k75h49q",354,"71.csv","","234.40000000596046","resources/trios/L2T4A1.jpg","39","restless",0.9,0.4,0.5,0.473502437867279,"true"
"image-keyboard-response",492,400132,"0.0-3.160-1.160","nbx2wnd7k75h49q",354,"71.csv","","null","resources/maskTrios/BBA1.jpg","null","",NA,NA,NA,NA,""
"image-keyboard-response",493,401336,"0.0-3.160-2.160","nbx2wnd7k75h49q",354,"71.csv","","null","resources/images/coin2.png","null","",NA,NA,NA,NA,""
"image-keyboard-response",494,401457,"0.0-3.161-0.161","nbx2wnd7k75h49q",354,"71.csv","","119.40000000596046","resources/trios/L4T2A2.jpg","39","restless",0.8,0.4,0.5,0.836509541041179,"false"
"image-keyboard-response",495,401859,"0.0-3.161-1.161","nbx2wnd7k75h49q",354,"71.csv","","null","resources/maskTrios/BBA2.jpg","null","",NA,NA,NA,NA,""
"image-keyboard-response",496,403061,"0.0-3.161-2.161","nbx2wnd7k75h49q",354,"71.csv","","null","resources/images/fishbone.png","null","",NA,NA,NA,NA,""
"image-keyboard-response",497,403159,"0.0-3.162-0.162","nbx2wnd7k75h49q",354,"71.csv","","96.70000000298023","resources/trios/L4T4A1.jpg","39","restless",0.9,0.4,0.5,0.492735600620692,"true"
"image-keyboard-response",498,403562,"0.0-3.162-1.162","nbx2wnd7k75h49q",354,"71.csv","","null","resources/maskTrios/BBA1.jpg","null","",NA,NA,NA,NA,""
"image-keyboard-response",499,404769,"0.0-3.162-2.162","nbx2wnd7k75h49q",354,"71.csv","","null","resources/images/coin2.png","null","",NA,NA,NA,NA,""
"image-keyboard-response",500,405313,"0.0-3.163-0.163","nbx2wnd7k75h49q",354,"71.csv","","543.2000000029802","resources/trios/L2T4A2.jpg","39","restless",0.9,0.5,0.4,0.643447280533727,"false"
"image-keyboard-response",501,405719,"0.0-3.163-1.163","nbx2wnd7k75h49q",354,"71.csv","","null","resources/maskTrios/BBA2.jpg","null","",NA,NA,NA,NA,""
"image-keyboard-response",502,406921,"0.0-3.163-2.163","nbx2wnd7k75h49q",354,"71.csv","","null","resources/images/fishbone.png","null","",NA,NA,NA,NA,""
"image-keyboard-response",503,407138,"0.0-3.164-0.164","nbx2wnd7k75h49q",354,"71.csv","","216.6000000089407","resources/trios/L2T4A2.jpg","39","restless",0.9,0.5,0.4,0.13155010655507,"true"
"image-keyboard-response",504,407540,"0.0-3.164-1.164","nbx2wnd7k75h49q",354,"71.csv","","null","resources/maskTrios/BBA2.jpg","null","",NA,NA,NA,NA,""
"image-keyboard-response",505,408743,"0.0-3.164-2.164","nbx2wnd7k75h49q",354,"71.csv","","null","resources/images/coin2.png","null","",NA,NA,NA,NA,""
"image-keyboard-response",506,4898828,"0.0-3.165-0.165","nbx2wnd7k75h49q",354,"71.csv","","147914.19999998808","resources/trios/L2T4A2.jpg","39","restless",0.9,0.5,0.4,0.157547094945971,"true"
"image-keyboard-response",507,4899229,"0.0-3.165-1.165","nbx2wnd7k75h49q",354,"71.csv","","null","resources/maskTrios/BBA2.jpg","null","",NA,NA,NA,NA,""
"image-keyboard-response",508,4900433,"0.0-3.165-2.165","nbx2wnd7k75h49q",354,"71.csv","","null","resources/images/coin2.png","null","",NA,NA,NA,NA,""
"image-keyboard-response",509,4900498,"0.0-3.166-0.166","nbx2wnd7k75h49q",354,"71.csv","","64.1000000089407","resources/trios/L4T2A2.jpg","39","restless",0.9,0.5,0.4,0.336453604139785,"true"
"image-keyboard-response",510,4900905,"0.0-3.166-1.166","nbx2wnd7k75h49q",354,"71.csv","","null","resources/maskTrios/BBA2.jpg","null","",NA,NA,NA,NA,""
"image-keyboard-response",511,4902110,"0.0-3.166-2.166","nbx2wnd7k75h49q",354,"71.csv","","null","resources/images/coin2.png","null","",NA,NA,NA,NA,""
"image-keyboard-response",512,4902152,"0.0-3.167-0.167","nbx2wnd7k75h49q",354,"71.csv","","41.099999994039536","resources/trios/L4T4A1.jpg","39","restless",0.9,0.5,0.4,0.606629090975238,"false"
"image-keyboard-response",513,4902555,"0.0-3.167-1.167","nbx2wnd7k75h49q",354,"71.csv","","null","resources/maskTrios/BBA1.jpg","null","",NA,NA,NA,NA,""
"image-keyboard-response",514,4903759,"0.0-3.167-2.167","nbx2wnd7k75h49q",354,"71.csv","","null","resources/images/fishbone.png","null","",NA,NA,NA,NA,""
"image-keyboard-response",515,4904122,"0.0-3.168-0.168","nbx2wnd7k75h49q",354,"71.csv","","361.70000000298023","resources/trios/L4T2A2.jpg","39","restless",0.9,0.5,0.4,0.949279354986188,"false"
"image-keyboard-response",516,4904525,"0.0-3.168-1.168","nbx2wnd7k75h49q",354,"71.csv","","null","resources/maskTrios/BBA2.jpg","null","",NA,NA,NA,NA,""
"image-keyboard-response",517,4905728,"0.0-3.168-2.168","nbx2wnd7k75h49q",354,"71.csv","","null","resources/images/fishbone.png","null","",NA,NA,NA,NA,""
"image-keyboard-response",518,4905786,"0.0-3.169-0.169","nbx2wnd7k75h49q",354,"71.csv","","56.79999999701977","resources/trios/L2T2A2.jpg","38","restless",0.9,0.5,0.4,0.199773344628287,"true"
"image-keyboard-response",519,4906192,"0.0-3.169-1.169","nbx2wnd7k75h49q",354,"71.csv","","null","resources/maskTrios/BT2B.jpg","null","",NA,NA,NA,NA,""
"image-keyboard-response",520,4907399,"0.0-3.169-2.169","nbx2wnd7k75h49q",354,"71.csv","","null","resources/images/coin2.png","null","",NA,NA,NA,NA,""
"image-keyboard-response",521,4907544,"0.0-3.170-0.170","nbx2wnd7k75h49q",354,"71.csv","","144.29999999701977","resources/trios/L4T4A2.jpg","39","restless",0.9,0.5,0.4,0.729195929350002,"false"
"image-keyboard-response",522,4907946,"0.0-3.170-1.170","nbx2wnd7k75h49q",354,"71.csv","","null","resources/maskTrios/BBA2.jpg","null","",NA,NA,NA,NA,""
"image-keyboard-response",523,4909149,"0.0-3.170-2.170","nbx2wnd7k75h49q",354,"71.csv","","null","resources/images/fishbone.png","null","",NA,NA,NA,NA,""
"image-keyboard-response",524,4909464,"0.0-3.171-0.171","nbx2wnd7k75h49q",354,"71.csv","","313.40000000596046","resources/trios/L2T4A2.jpg","38","restless",0.9,0.6,0.4,0.476091993525533,"true"
"image-keyboard-response",525,4909867,"0.0-3.171-1.171","nbx2wnd7k75h49q",354,"71.csv","","null","resources/maskTrios/BT4B.jpg","null","",NA,NA,NA,NA,""
"image-keyboard-response",526,4911073,"0.0-3.171-2.171","nbx2wnd7k75h49q",354,"71.csv","","null","resources/images/coin2.png","null","",NA,NA,NA,NA,""
"image-keyboard-response",527,4911129,"0.0-3.172-0.172","nbx2wnd7k75h49q",354,"71.csv","","54.5","resources/trios/L4T4A1.jpg","38","restless",0.9,0.6,0.4,0.342546267284087,"true"
"image-keyboard-response",528,4911530,"0.0-3.172-1.172","nbx2wnd7k75h49q",354,"71.csv","","null","resources/maskTrios/BT4B.jpg","null","",NA,NA,NA,NA,""
"image-keyboard-response",529,4912735,"0.0-3.172-2.172","nbx2wnd7k75h49q",354,"71.csv","","null","resources/images/coin2.png","null","",NA,NA,NA,NA,""
"image-keyboard-response",530,4912885,"0.0-3.173-0.173","nbx2wnd7k75h49q",354,"71.csv","","148.90000000596046","resources/trios/L4T4A1.jpg","38","restless",0.9,0.6,0.4,0.238804224527323,"true"
"image-keyboard-response",531,4913287,"0.0-3.173-1.173","nbx2wnd7k75h49q",354,"71.csv","","null","resources/maskTrios/BT4B.jpg","null","",NA,NA,NA,NA,""
"image-keyboard-response",532,4914488,"0.0-3.173-2.173","nbx2wnd7k75h49q",354,"71.csv","","null","resources/images/coin2.png","null","",NA,NA,NA,NA,""
"image-keyboard-response",533,4914562,"0.0-3.174-0.174","nbx2wnd7k75h49q",354,"71.csv","","73.79999999701977","resources/trios/L2T2A1.jpg","38","restless",0.9,0.6,0.4,0.680758497336201,"false"
"image-keyboard-response",534,4914965,"0.0-3.174-1.174","nbx2wnd7k75h49q",354,"71.csv","","null","resources/maskTrios/BT2B.jpg","null","",NA,NA,NA,NA,""
"image-keyboard-response",535,4916169,"0.0-3.174-2.174","nbx2wnd7k75h49q",354,"71.csv","","null","resources/images/fishbone.png","null","",NA,NA,NA,NA,""
"image-keyboard-response",536,4916297,"0.0-3.175-0.175","nbx2wnd7k75h49q",354,"71.csv","","126.90000000596046","resources/trios/L2T2A1.jpg","39","restless",0.9,0.6,0.4,0.141299505849293,"true"
"image-keyboard-response",537,4916701,"0.0-3.175-1.175","nbx2wnd7k75h49q",354,"71.csv","","null","resources/maskTrios/BBA1.jpg","null","",NA,NA,NA,NA,""
"image-keyboard-response",538,4917907,"0.0-3.175-2.175","nbx2wnd7k75h49q",354,"71.csv","","null","resources/images/coin2.png","null","",NA,NA,NA,NA,""
"image-keyboard-response",539,4917943,"0.0-3.176-0.176","nbx2wnd7k75h49q",354,"71.csv","","35.1000000089407","resources/trios/L4T4A2.jpg","39","restless",0.9,0.6,0.4,0.603915557296371,"false"
"image-keyboard-response",540,4918349,"0.0-3.176-1.176","nbx2wnd7k75h49q",354,"71.csv","","null","resources/maskTrios/BBA2.jpg","null","",NA,NA,NA,NA,""
"image-keyboard-response",541,4919550,"0.0-3.176-2.176","nbx2wnd7k75h49q",354,"71.csv","","null","resources/images/fishbone.png","null","",NA,NA,NA,NA,""
"image-keyboard-response",542,4919649,"0.0-3.177-0.177","nbx2wnd7k75h49q",354,"71.csv","","97.8999999910593","resources/trios/L2T4A1.jpg","38","restless",0.8,0.5,0.4,0.81052586074173,"false"
"image-keyboard-response",543,4920049,"0.0-3.177-1.177","nbx2wnd7k75h49q",354,"71.csv","","null","resources/maskTrios/BT4B.jpg","null","",NA,NA,NA,NA,""
"image-keyboard-response",544,4921255,"0.0-3.177-2.177","nbx2wnd7k75h49q",354,"71.csv","","null","resources/images/fishbone.png","null","",NA,NA,NA,NA,""
"image-keyboard-response",545,4921384,"0.0-3.178-0.178","nbx2wnd7k75h49q",354,"71.csv","","126.90000000596046","resources/trios/L4T4A1.jpg","39","restless",0.9,0.5,0.3,0.450162263058165,"false"
"image-keyboard-response",546,4921788,"0.0-3.178-1.178","nbx2wnd7k75h49q",354,"71.csv","","null","resources/maskTrios/BBA1.jpg","null","",NA,NA,NA,NA,""
"image-keyboard-response",547,4922990,"0.0-3.178-2.178","nbx2wnd7k75h49q",354,"71.csv","","null","resources/images/fishbone.png","null","",NA,NA,NA,NA,""
"image-keyboard-response",548,4923156,"0.0-3.179-0.179","nbx2wnd7k75h49q",354,"71.csv","","165.70000000298023","resources/trios/L2T2A2.jpg","37","restless",0.9,0.5,0.3,0.851027989846344,"true"
"image-keyboard-response",549,4923559,"0.0-3.179-1.179","nbx2wnd7k75h49q",354,"71.csv","","null","resources/maskTrios/L2BB.jpg","null","",NA,NA,NA,NA,""
"image-keyboard-response",550,4924761,"0.0-3.179-2.179","nbx2wnd7k75h49q",354,"71.csv","","null","resources/images/coin2.png","null","",NA,NA,NA,NA,""
"image-keyboard-response",551,4924791,"0.0-3.180-0.180","nbx2wnd7k75h49q",354,"71.csv","","29.900000005960464","resources/trios/L2T4A2.jpg","37","restless",0.8,0.5,0.3,0.999750326082532,"false"
"image-keyboard-response",552,4925194,"0.0-3.180-1.180","nbx2wnd7k75h49q",354,"71.csv","","null","resources/maskTrios/L2BB.jpg","null","",NA,NA,NA,NA,""
"image-keyboard-response",553,4926396,"0.0-3.180-2.180","nbx2wnd7k75h49q",354,"71.csv","","null","resources/images/fishbone.png","null","",NA,NA,NA,NA,""
"image-keyboard-response",554,4926512,"0.0-3.181-0.181","nbx2wnd7k75h49q",354,"71.csv","","115.70000000298023","resources/trios/L2T2A1.jpg","39","restless",0.8,0.5,0.3,0.696000333395599,"false"
"image-keyboard-response",555,4926915,"0.0-3.181-1.181","nbx2wnd7k75h49q",354,"71.csv","","null","resources/maskTrios/BBA1.jpg","null","",NA,NA,NA,NA,""
"image-keyboard-response",556,4928116,"0.0-3.181-2.181","nbx2wnd7k75h49q",354,"71.csv","","null","resources/images/fishbone.png","null","",NA,NA,NA,NA,""
"image-keyboard-response",557,4928568,"0.0-3.182-0.182","nbx2wnd7k75h49q",354,"71.csv","","451.3999999910593","resources/trios/L4T2A2.jpg","38","restless",0.8,0.5,0.3,0.307876695219471,"true"
"image-keyboard-response",558,4928969,"0.0-3.182-1.182","nbx2wnd7k75h49q",354,"71.csv","","null","resources/maskTrios/BT2B.jpg","null","",NA,NA,NA,NA,""
"image-keyboard-response",559,4930176,"0.0-3.182-2.182","nbx2wnd7k75h49q",354,"71.csv","","null","resources/images/coin2.png","null","",NA,NA,NA,NA,""
"image-keyboard-response",560,4930399,"0.0-3.183-0.183","nbx2wnd7k75h49q",354,"71.csv","","222.20000000298023","resources/trios/L4T2A1.jpg","38","restless",0.8,0.5,0.3,0.114869645186794,"true"
"image-keyboard-response",561,4930805,"0.0-3.183-1.183","nbx2wnd7k75h49q",354,"71.csv","","null","resources/maskTrios/BT2B.jpg","null","",NA,NA,NA,NA,""
"image-keyboard-response",562,4932008,"0.0-3.183-2.183","nbx2wnd7k75h49q",354,"71.csv","","null","resources/images/coin2.png","null","",NA,NA,NA,NA,""
"image-keyboard-response",563,4932043,"0.0-3.184-0.184","nbx2wnd7k75h49q",354,"71.csv","","34","resources/trios/L4T2A1.jpg","38","restless",0.8,0.5,0.3,0.466155202254703,"true"
"image-keyboard-response",564,4932450,"0.0-3.184-1.184","nbx2wnd7k75h49q",354,"71.csv","","null","resources/maskTrios/BT2B.jpg","null","",NA,NA,NA,NA,""
"image-keyboard-response",565,4933657,"0.0-3.184-2.184","nbx2wnd7k75h49q",354,"71.csv","","null","resources/images/coin2.png","null","",NA,NA,NA,NA,""
"image-keyboard-response",566,4933740,"0.0-3.185-0.185","nbx2wnd7k75h49q",354,"71.csv","","82.40000000596046","resources/trios/L4T4A1.jpg","38","restless",0.8,0.5,0.3,0.664353571465135,"false"
"image-keyboard-response",567,4934147,"0.0-3.185-1.185","nbx2wnd7k75h49q",354,"71.csv","","null","resources/maskTrios/BT4B.jpg","null","",NA,NA,NA,NA,""
"image-keyboard-response",568,4935349,"0.0-3.185-2.185","nbx2wnd7k75h49q",354,"71.csv","","null","resources/images/fishbone.png","null","",NA,NA,NA,NA,""
"image-keyboard-response",569,4935395,"0.0-3.186-0.186","nbx2wnd7k75h49q",354,"71.csv","","45.1000000089407","resources/trios/L2T2A1.jpg","39","restless",0.8,0.5,0.3,0.740721182245717,"false"
"image-keyboard-response",570,4935802,"0.0-3.186-1.186","nbx2wnd7k75h49q",354,"71.csv","","null","resources/maskTrios/BBA1.jpg","null","",NA,NA,NA,NA,""
"image-keyboard-response",571,4937006,"0.0-3.186-2.186","nbx2wnd7k75h49q",354,"71.csv","","null","resources/images/fishbone.png","null","",NA,NA,NA,NA,""
"image-keyboard-response",572,4937146,"0.0-3.187-0.187","nbx2wnd7k75h49q",354,"71.csv","","138.3999999910593","resources/trios/L4T4A1.jpg","37","restless",0.8,0.5,0.3,0.900788690847117,"false"
"image-keyboard-response",573,4937550,"0.0-3.187-1.187","nbx2wnd7k75h49q",354,"71.csv","","null","resources/maskTrios/L4BB.jpg","null","",NA,NA,NA,NA,""
"image-keyboard-response",574,4938754,"0.0-3.187-2.187","nbx2wnd7k75h49q",354,"71.csv","","null","resources/images/fishbone.png","null","",NA,NA,NA,NA,""
"image-keyboard-response",575,4939351,"0.0-3.188-0.188","nbx2wnd7k75h49q",354,"71.csv","","595.5","resources/trios/L4T4A1.jpg","38","restless",0.8,0.5,0.3,0.780578415121141,"false"
"image-keyboard-response",576,4939752,"0.0-3.188-1.188","nbx2wnd7k75h49q",354,"71.csv","","null","resources/maskTrios/BT4B.jpg","null","",NA,NA,NA,NA,""
"image-keyboard-response",577,4940955,"0.0-3.188-2.188","nbx2wnd7k75h49q",354,"71.csv","","null","resources/images/fishbone.png","null","",NA,NA,NA,NA,""
"image-keyboard-response",578,4941073,"0.0-3.189-0.189","nbx2wnd7k75h49q",354,"71.csv","","116.79999999701977","resources/trios/L4T2A1.jpg","39","restless",0.8,0.5,0.3,0.768297218439579,"false"
"image-keyboard-response",579,4941474,"0.0-3.189-1.189","nbx2wnd7k75h49q",354,"71.csv","","null","resources/maskTrios/BBA1.jpg","null","",NA,NA,NA,NA,""
"image-keyboard-response",580,4942678,"0.0-3.189-2.189","nbx2wnd7k75h49q",354,"71.csv","","null","resources/images/fishbone.png","null","",NA,NA,NA,NA,""
"image-keyboard-response",581,4942767,"0.0-3.190-0.190","nbx2wnd7k75h49q",354,"71.csv","","87","resources/trios/L2T4A1.jpg","38","restless",0.8,0.6,0.3,0.00673379217862657,"true"
"image-keyboard-response",582,4943173,"0.0-3.190-1.190","nbx2wnd7k75h49q",354,"71.csv","","null","resources/maskTrios/BT4B.jpg","null","",NA,NA,NA,NA,""
"image-keyboard-response",583,4944375,"0.0-3.190-2.190","nbx2wnd7k75h49q",354,"71.csv","","null","resources/images/coin2.png","null","",NA,NA,NA,NA,""
"image-keyboard-response",584,4944429,"0.0-3.191-0.191","nbx2wnd7k75h49q",354,"71.csv","","52.79999999701977","resources/trios/L4T2A2.jpg","38","restless",0.8,0.6,0.3,0.695820408382001,"false"
"image-keyboard-response",585,4944833,"0.0-3.191-1.191","nbx2wnd7k75h49q",354,"71.csv","","null","resources/maskTrios/BT2B.jpg","null","",NA,NA,NA,NA,""
"image-keyboard-response",586,4946036,"0.0-3.191-2.191","nbx2wnd7k75h49q",354,"71.csv","","null","resources/images/fishbone.png","null","",NA,NA,NA,NA,""
"image-keyboard-response",587,4946228,"0.0-3.192-0.192","nbx2wnd7k75h49q",354,"71.csv","","191","resources/trios/L2T4A2.jpg","39","restless",0.8,0.6,0.3,0.173955949594513,"true"
"image-keyboard-response",588,4946633,"0.0-3.192-1.192","nbx2wnd7k75h49q",354,"71.csv","","null","resources/maskTrios/BBA2.jpg","null","",NA,NA,NA,NA,""
"image-keyboard-response",589,4947840,"0.0-3.192-2.192","nbx2wnd7k75h49q",354,"71.csv","","null","resources/images/coin2.png","null","",NA,NA,NA,NA,""
"image-keyboard-response",590,4947880,"0.0-3.193-0.193","nbx2wnd7k75h49q",354,"71.csv","","38.900000005960464","resources/trios/L2T2A2.jpg","39","restless",0.8,0.6,0.3,0.510562566718668,"false"
"image-keyboard-response",591,4948282,"0.0-3.193-1.193","nbx2wnd7k75h49q",354,"71.csv","","null","resources/maskTrios/BBA2.jpg","null","",NA,NA,NA,NA,""
"image-keyboard-response",592,4949490,"0.0-3.193-2.193","nbx2wnd7k75h49q",354,"71.csv","","null","resources/images/fishbone.png","null","",NA,NA,NA,NA,""
"image-keyboard-response",593,4949499,"0.0-3.194-0.194","nbx2wnd7k75h49q",354,"71.csv","","8.400000005960464","resources/trios/L2T4A2.jpg","37","restless",0.7,0.6,0.3,0.647441852856623,"true"
"image-keyboard-response",594,4949906,"0.0-3.194-1.194","nbx2wnd7k75h49q",354,"71.csv","","null","resources/maskTrios/L2BB.jpg","null","",NA,NA,NA,NA,""
"image-keyboard-response",595,4951111,"0.0-3.194-2.194","nbx2wnd7k75h49q",354,"71.csv","","null","resources/images/coin2.png","null","",NA,NA,NA,NA,""
"image-keyboard-response",596,4951186,"0.0-3.195-0.195","nbx2wnd7k75h49q",354,"71.csv","","73.70000000298023","resources/trios/L2T4A1.jpg","38","restless",0.7,0.6,0.3,0.792992660900582,"false"
"image-keyboard-response",597,4951588,"0.0-3.195-1.195","nbx2wnd7k75h49q",354,"71.csv","","null","resources/maskTrios/BT4B.jpg","null","",NA,NA,NA,NA,""
"image-keyboard-response",598,4952793,"0.0-3.195-2.195","nbx2wnd7k75h49q",354,"71.csv","","null","resources/images/fishbone.png","null","",NA,NA,NA,NA,""
"image-keyboard-response",599,4952898,"0.0-3.196-0.196","nbx2wnd7k75h49q",354,"71.csv","","104.40000000596046","resources/trios/L2T2A2.jpg","39","restless",0.7,0.6,0.4,0.639413703494584,"false"
"image-keyboard-response",600,4953299,"0.0-3.196-1.196","nbx2wnd7k75h49q",354,"71.csv","","null","resources/maskTrios/BBA2.jpg","null","",NA,NA,NA,NA,""
"image-keyboard-response",601,4954506,"0.0-3.196-2.196","nbx2wnd7k75h49q",354,"71.csv","","null","resources/images/fishbone.png","null","",NA,NA,NA,NA,""
"image-keyboard-response",602,4954535,"0.0-3.197-0.197","nbx2wnd7k75h49q",354,"71.csv","","28.299999997019768","resources/trios/L4T2A1.jpg","38","restless",0.7,0.6,0.4,0.639291551492298,"false"
"image-keyboard-response",603,4954942,"0.0-3.197-1.197","nbx2wnd7k75h49q",354,"71.csv","","null","resources/maskTrios/BT2B.jpg","null","",NA,NA,NA,NA,""
"image-keyboard-response",604,4956148,"0.0-3.197-2.197","nbx2wnd7k75h49q",354,"71.csv","","null","resources/images/fishbone.png","null","",NA,NA,NA,NA,""
"image-keyboard-response",605,4956292,"0.0-3.198-0.198","nbx2wnd7k75h49q",354,"71.csv","","142.8999999910593","resources/trios/L2T4A2.jpg","37","restless",0.7,0.6,0.4,0.654375048663588,"true"
"image-keyboard-response",606,4956694,"0.0-3.198-1.198","nbx2wnd7k75h49q",354,"71.csv","","null","resources/maskTrios/L2BB.jpg","null","",NA,NA,NA,NA,""
"image-keyboard-response",607,4957900,"0.0-3.198-2.198","nbx2wnd7k75h49q",354,"71.csv","","null","resources/images/coin2.png","null","",NA,NA,NA,NA,""
