"trial_type","trial_index","time_elapsed","internal_node_id","subject","participantCode","walkNumber","success","rt","stimulus","key_press","test_part","leftProb","midProb","rightProb","generatedNum","correct"
"pavlovia",0,955,"0.0-0.0","edj38s5gs2q6kjs",402,"173.csv","","","","","",NA,NA,NA,NA,""
"fullscreen",1,4077,"0.0-1.0","edj38s5gs2q6kjs",402,"173.csv","true","","","","",NA,NA,NA,NA,""
"html-keyboard-response",2,107537,"0.0-2.0-0.0","edj38s5gs2q6kjs",402,"173.csv","","103472.30000000447","<p><font size='6'>Arrrgh!</p></font><p>Can you be the best pirate? Try to find lots of gold! But beware, some islands have more gold than others, and over time, the island with the most gold may change. Can YOU figure it out? </p><font size='6'>GOOD LUCK, CAPTAIN!!!</font><p>Press any key to begin</p>","78","",NA,NA,NA,NA,""
"image-keyboard-response",3,110541,"0.0-2.0-1.0","edj38s5gs2q6kjs",402,"173.csv","","null","resources/image_sets/111.png","null","",NA,NA,NA,NA,""
"image-keyboard-response",4,118089,"0.0-2.0-2.0","edj38s5gs2q6kjs",402,"173.csv","","7547.9000000059605","resources/image_sets/left_highlight.png","37","",NA,NA,NA,NA,""
"image-keyboard-response",5,120902,"0.0-2.0-3.0","edj38s5gs2q6kjs",402,"173.csv","","2811.8000000044703","resources/image_sets/mid_highlight.png","38","",NA,NA,NA,NA,""
"image-keyboard-response",6,123340,"0.0-2.0-4.0","edj38s5gs2q6kjs",402,"173.csv","","2436.7999999970198","resources/image_sets/right_highlight.png","39","",NA,NA,NA,NA,""
"image-keyboard-response",7,133078,"0.0-2.0-5.0","edj38s5gs2q6kjs",402,"173.csv","","9737.60000000149","resources/image_sets/111.png","13","",NA,NA,NA,NA,""
"image-keyboard-response",8,135092,"0.0-2.0-6.0","edj38s5gs2q6kjs",402,"173.csv","","2012.6999999955297","resources/images/coin2.png","13","",NA,NA,NA,NA,""
"image-keyboard-response",9,139652,"0.0-2.0-7.0","edj38s5gs2q6kjs",402,"173.csv","","4559.5","resources/images/fishbone.png","13","",NA,NA,NA,NA,""
"html-keyboard-response",10,155569,"0.0-2.0-8.0","edj38s5gs2q6kjs",402,"173.csv","","15916.5","<p>Your first journey will be a long one, but you will get a well deserved break at the end</p><p>After the break you will have four more journeys, but each will be much shorter than the first, and you will have breaks in between each</p><p>Press Enter to begin</p>","13","",NA,NA,NA,NA,""
"image-keyboard-response",11,157411,"0.0-3.0-0.0","edj38s5gs2q6kjs",402,"173.csv","","1839.8999999985099","resources/trios/L1T1A2.jpg","39","restless",0.7,0.9,0.3,0.555079599531507,"false"
"image-keyboard-response",12,157818,"0.0-3.0-1.0","edj38s5gs2q6kjs",402,"173.csv","","null","resources/maskTrios/BBA2.jpg","null","",NA,NA,NA,NA,""
"image-keyboard-response",13,159030,"0.0-3.0-2.0","edj38s5gs2q6kjs",402,"173.csv","","null","resources/images/fishbone.png","null","",NA,NA,NA,NA,""
"image-keyboard-response",14,160152,"0.0-3.1-0.1","edj38s5gs2q6kjs",402,"173.csv","","1119.5","resources/trios/L2T1A3.jpg","39","restless",0.7,0.8,0.3,0.266993418087292,"true"
"image-keyboard-response",15,160566,"0.0-3.1-1.1","edj38s5gs2q6kjs",402,"173.csv","","null","resources/maskTrios/BBA3.jpg","null","",NA,NA,NA,NA,""
"image-keyboard-response",16,161773,"0.0-3.1-2.1","edj38s5gs2q6kjs",402,"173.csv","","null","resources/images/coin2.png","null","",NA,NA,NA,NA,""
"image-keyboard-response",17,164276,"0.0-3.2-0.2","edj38s5gs2q6kjs",402,"173.csv","","2502.39999999851","resources/trios/L1T1A3.jpg","37","restless",0.7,0.8,0.3,0.720593530292528,"false"
"image-keyboard-response",18,164687,"0.0-3.2-1.2","edj38s5gs2q6kjs",402,"173.csv","","null","resources/maskTrios/L1BB.jpg","null","",NA,NA,NA,NA,""
"image-keyboard-response",19,165895,"0.0-3.2-2.2","edj38s5gs2q6kjs",402,"173.csv","","null","resources/images/fishbone.png","null","",NA,NA,NA,NA,""
"image-keyboard-response",20,167999,"0.0-3.3-0.3","edj38s5gs2q6kjs",402,"173.csv","","2103.2999999970198","resources/trios/L2T1A3.jpg","39","restless",0.7,0.7,0.3,0.0450612758428164,"true"
"image-keyboard-response",21,168407,"0.0-3.3-1.3","edj38s5gs2q6kjs",402,"173.csv","","null","resources/maskTrios/BBA3.jpg","null","",NA,NA,NA,NA,""
"image-keyboard-response",22,169611,"0.0-3.3-2.3","edj38s5gs2q6kjs",402,"173.csv","","null","resources/images/coin2.png","null","",NA,NA,NA,NA,""
"image-keyboard-response",23,170321,"0.0-3.4-0.4","edj38s5gs2q6kjs",402,"173.csv","","708.5","resources/trios/L2T2A2.jpg","39","restless",0.7,0.7,0.3,0.176544850793885,"true"
"image-keyboard-response",24,170735,"0.0-3.4-1.4","edj38s5gs2q6kjs",402,"173.csv","","null","resources/maskTrios/BBA2.jpg","null","",NA,NA,NA,NA,""
"image-keyboard-response",25,171940,"0.0-3.4-2.4","edj38s5gs2q6kjs",402,"173.csv","","null","resources/images/coin2.png","null","",NA,NA,NA,NA,""
"image-keyboard-response",26,173644,"0.0-3.5-0.5","edj38s5gs2q6kjs",402,"173.csv","","1702.6000000014901","resources/trios/L2T1A2.jpg","39","restless",0.8,0.7,0.3,0.131548276680195,"true"
"image-keyboard-response",27,174055,"0.0-3.5-1.5","edj38s5gs2q6kjs",402,"173.csv","","null","resources/maskTrios/BBA2.jpg","null","",NA,NA,NA,NA,""
"image-keyboard-response",28,175263,"0.0-3.5-2.5","edj38s5gs2q6kjs",402,"173.csv","","null","resources/images/coin2.png","null","",NA,NA,NA,NA,""
"image-keyboard-response",29,176020,"0.0-3.6-0.6","edj38s5gs2q6kjs",402,"173.csv","","755.8999999985099","resources/trios/L2T1A3.jpg","39","restless",0.8,0.7,0.4,0.72407393090568,"false"
"image-keyboard-response",30,176430,"0.0-3.6-1.6","edj38s5gs2q6kjs",402,"173.csv","","null","resources/maskTrios/BBA3.jpg","null","",NA,NA,NA,NA,""
"image-keyboard-response",31,177639,"0.0-3.6-2.6","edj38s5gs2q6kjs",402,"173.csv","","null","resources/images/fishbone.png","null","",NA,NA,NA,NA,""
"image-keyboard-response",32,178243,"0.0-3.7-0.7","edj38s5gs2q6kjs",402,"173.csv","","602.5","resources/trios/L2T2A3.jpg","37","restless",0.8,0.7,0.4,0.313502598573049,"true"
"image-keyboard-response",33,178652,"0.0-3.7-1.7","edj38s5gs2q6kjs",402,"173.csv","","null","resources/maskTrios/L2BB.jpg","null","",NA,NA,NA,NA,""
"image-keyboard-response",34,179863,"0.0-3.7-2.7","edj38s5gs2q6kjs",402,"173.csv","","null","resources/images/coin2.png","null","",NA,NA,NA,NA,""
"image-keyboard-response",35,180626,"0.0-3.8-0.8","edj38s5gs2q6kjs",402,"173.csv","","761.2999999970198","resources/trios/L2T2A3.jpg","37","restless",0.7,0.7,0.4,0.880226520590649,"false"
"image-keyboard-response",36,181034,"0.0-3.8-1.8","edj38s5gs2q6kjs",402,"173.csv","","null","resources/maskTrios/L2BB.jpg","null","",NA,NA,NA,NA,""
"image-keyboard-response",37,182247,"0.0-3.8-2.8","edj38s5gs2q6kjs",402,"173.csv","","null","resources/images/fishbone.png","null","",NA,NA,NA,NA,""
"image-keyboard-response",38,184328,"0.0-3.9-0.9","edj38s5gs2q6kjs",402,"173.csv","","2079.60000000149","resources/trios/L2T2A2.jpg","39","restless",0.7,0.7,0.4,0.130050590084909,"true"
"image-keyboard-response",39,184735,"0.0-3.9-1.9","edj38s5gs2q6kjs",402,"173.csv","","null","resources/maskTrios/BBA2.jpg","null","",NA,NA,NA,NA,""
"image-keyboard-response",40,185943,"0.0-3.9-2.9","edj38s5gs2q6kjs",402,"173.csv","","null","resources/images/coin2.png","null","",NA,NA,NA,NA,""
"image-keyboard-response",41,187216,"0.0-3.10-0.10","edj38s5gs2q6kjs",402,"173.csv","","1271.2000000029802","resources/trios/L1T1A2.jpg","37","restless",0.7,0.7,0.4,0.894113746998014,"false"
"image-keyboard-response",42,187623,"0.0-3.10-1.10","edj38s5gs2q6kjs",402,"173.csv","","null","resources/maskTrios/L1BB.jpg","null","",NA,NA,NA,NA,""
"image-keyboard-response",43,188829,"0.0-3.10-2.10","edj38s5gs2q6kjs",402,"173.csv","","null","resources/images/fishbone.png","null","",NA,NA,NA,NA,""
"image-keyboard-response",44,189333,"0.0-3.11-0.11","edj38s5gs2q6kjs",402,"173.csv","","502.1000000014901","resources/trios/L1T2A3.jpg","39","restless",0.7,0.7,0.4,0.867256544067549,"false"
"image-keyboard-response",45,189743,"0.0-3.11-1.11","edj38s5gs2q6kjs",402,"173.csv","","null","resources/maskTrios/BBA3.jpg","null","",NA,NA,NA,NA,""
"image-keyboard-response",46,190951,"0.0-3.11-2.11","edj38s5gs2q6kjs",402,"173.csv","","null","resources/images/fishbone.png","null","",NA,NA,NA,NA,""
"image-keyboard-response",47,191273,"0.0-3.12-0.12","edj38s5gs2q6kjs",402,"173.csv","","320.19999999552965","resources/trios/L1T1A2.jpg","39","restless",0.7,0.7,0.4,0.471629122980019,"false"
"image-keyboard-response",48,191682,"0.0-3.12-1.12","edj38s5gs2q6kjs",402,"173.csv","","null","resources/maskTrios/BBA2.jpg","null","",NA,NA,NA,NA,""
"image-keyboard-response",49,192895,"0.0-3.12-2.12","edj38s5gs2q6kjs",402,"173.csv","","null","resources/images/fishbone.png","null","",NA,NA,NA,NA,""
"image-keyboard-response",50,193246,"0.0-3.13-0.13","edj38s5gs2q6kjs",402,"173.csv","","349.20000000298023","resources/trios/L1T2A3.jpg","37","restless",0.7,0.7,0.4,0.397092474560258,"true"
"image-keyboard-response",51,193651,"0.0-3.13-1.13","edj38s5gs2q6kjs",402,"173.csv","","null","resources/maskTrios/L1BB.jpg","null","",NA,NA,NA,NA,""
"image-keyboard-response",52,194863,"0.0-3.13-2.13","edj38s5gs2q6kjs",402,"173.csv","","null","resources/images/coin2.png","null","",NA,NA,NA,NA,""
"image-keyboard-response",53,195538,"0.0-3.14-0.14","edj38s5gs2q6kjs",402,"173.csv","","672.7999999970198","resources/trios/L1T1A3.jpg","37","restless",0.7,0.7,0.4,0.243052602068623,"true"
"image-keyboard-response",54,195951,"0.0-3.14-1.14","edj38s5gs2q6kjs",402,"173.csv","","null","resources/maskTrios/L1BB.jpg","null","",NA,NA,NA,NA,""
"image-keyboard-response",55,197157,"0.0-3.14-2.14","edj38s5gs2q6kjs",402,"173.csv","","null","resources/images/coin2.png","null","",NA,NA,NA,NA,""
"image-keyboard-response",56,197607,"0.0-3.15-0.15","edj38s5gs2q6kjs",402,"173.csv","","448.3999999985099","resources/trios/L1T1A3.jpg","37","restless",0.7,0.7,0.4,0.136157199323023,"true"
"image-keyboard-response",57,198011,"0.0-3.15-1.15","edj38s5gs2q6kjs",402,"173.csv","","null","resources/maskTrios/L1BB.jpg","null","",NA,NA,NA,NA,""
"image-keyboard-response",58,199224,"0.0-3.15-2.15","edj38s5gs2q6kjs",402,"173.csv","","null","resources/images/coin2.png","null","",NA,NA,NA,NA,""
"image-keyboard-response",59,199589,"0.0-3.16-0.16","edj38s5gs2q6kjs",402,"173.csv","","364","resources/trios/L1T1A2.jpg","37","restless",0.6,0.7,0.4,0.621018032573441,"false"
"image-keyboard-response",60,199998,"0.0-3.16-1.16","edj38s5gs2q6kjs",402,"173.csv","","null","resources/maskTrios/L1BB.jpg","null","",NA,NA,NA,NA,""
"image-keyboard-response",61,201208,"0.0-3.16-2.16","edj38s5gs2q6kjs",402,"173.csv","","null","resources/images/fishbone.png","null","",NA,NA,NA,NA,""
"image-keyboard-response",62,201616,"0.0-3.17-0.17","edj38s5gs2q6kjs",402,"173.csv","","406.59999999403954","resources/trios/L1T2A3.jpg","37","restless",0.6,0.7,0.5,0.273564670420518,"true"
"image-keyboard-response",63,202024,"0.0-3.17-1.17","edj38s5gs2q6kjs",402,"173.csv","","null","resources/maskTrios/L1BB.jpg","null","",NA,NA,NA,NA,""
"image-keyboard-response",64,203230,"0.0-3.17-2.17","edj38s5gs2q6kjs",402,"173.csv","","null","resources/images/coin2.png","null","",NA,NA,NA,NA,""
"image-keyboard-response",65,203764,"0.0-3.18-0.18","edj38s5gs2q6kjs",402,"173.csv","","533","resources/trios/L1T2A3.jpg","37","restless",0.6,0.7,0.5,0.169652395967598,"true"
"image-keyboard-response",66,204174,"0.0-3.18-1.18","edj38s5gs2q6kjs",402,"173.csv","","null","resources/maskTrios/L1BB.jpg","null","",NA,NA,NA,NA,""
"image-keyboard-response",67,205380,"0.0-3.18-2.18","edj38s5gs2q6kjs",402,"173.csv","","null","resources/images/coin2.png","null","",NA,NA,NA,NA,""
"image-keyboard-response",68,206062,"0.0-3.19-0.19","edj38s5gs2q6kjs",402,"173.csv","","680.6000000014901","resources/trios/L2T1A3.jpg","37","restless",0.5,0.7,0.5,0.533835465249236,"false"
"image-keyboard-response",69,206467,"0.0-3.19-1.19","edj38s5gs2q6kjs",402,"173.csv","","null","resources/maskTrios/L2BB.jpg","null","",NA,NA,NA,NA,""
"image-keyboard-response",70,207679,"0.0-3.19-2.19","edj38s5gs2q6kjs",402,"173.csv","","null","resources/images/fishbone.png","null","",NA,NA,NA,NA,""
"image-keyboard-response",71,208177,"0.0-3.20-0.20","edj38s5gs2q6kjs",402,"173.csv","","497","resources/trios/L2T1A3.jpg","39","restless",0.5,0.7,0.5,0.574239140971097,"false"
"image-keyboard-response",72,208579,"0.0-3.20-1.20","edj38s5gs2q6kjs",402,"173.csv","","null","resources/maskTrios/BBA3.jpg","null","",NA,NA,NA,NA,""
"image-keyboard-response",73,209792,"0.0-3.20-2.20","edj38s5gs2q6kjs",402,"173.csv","","null","resources/images/fishbone.png","null","",NA,NA,NA,NA,""
"image-keyboard-response",74,210079,"0.0-3.21-0.21","edj38s5gs2q6kjs",402,"173.csv","","285.69999999552965","resources/trios/L1T1A3.jpg","39","restless",0.5,0.6,0.5,0.411543565408219,"true"
"image-keyboard-response",75,210488,"0.0-3.21-1.21","edj38s5gs2q6kjs",402,"173.csv","","null","resources/maskTrios/BBA3.jpg","null","",NA,NA,NA,NA,""
"image-keyboard-response",76,211693,"0.0-3.21-2.21","edj38s5gs2q6kjs",402,"173.csv","","null","resources/images/coin2.png","null","",NA,NA,NA,NA,""
"image-keyboard-response",77,211996,"0.0-3.22-0.22","edj38s5gs2q6kjs",402,"173.csv","","301.59999999403954","resources/trios/L1T1A2.jpg","39","restless",0.5,0.6,0.5,0.0256782828787072,"true"
"image-keyboard-response",78,212404,"0.0-3.22-1.22","edj38s5gs2q6kjs",402,"173.csv","","null","resources/maskTrios/BBA2.jpg","null","",NA,NA,NA,NA,""
"image-keyboard-response",79,213612,"0.0-3.22-2.22","edj38s5gs2q6kjs",402,"173.csv","","null","resources/images/coin2.png","null","",NA,NA,NA,NA,""
"image-keyboard-response",80,213870,"0.0-3.23-0.23","edj38s5gs2q6kjs",402,"173.csv","","256","resources/trios/L1T1A2.jpg","39","restless",0.5,0.6,0.5,0.970522116507969,"false"
"image-keyboard-response",81,214280,"0.0-3.23-1.23","edj38s5gs2q6kjs",402,"173.csv","","null","resources/maskTrios/BBA2.jpg","null","",NA,NA,NA,NA,""
"image-keyboard-response",82,215486,"0.0-3.23-2.23","edj38s5gs2q6kjs",402,"173.csv","","null","resources/images/fishbone.png","null","",NA,NA,NA,NA,""
"image-keyboard-response",83,215776,"0.0-3.24-0.24","edj38s5gs2q6kjs",402,"173.csv","","288.6000000014901","resources/trios/L2T2A3.jpg","37","restless",0.5,0.6,0.6,0.417992591908135,"true"
"image-keyboard-response",84,216180,"0.0-3.24-1.24","edj38s5gs2q6kjs",402,"173.csv","","null","resources/maskTrios/L2BB.jpg","null","",NA,NA,NA,NA,""
"image-keyboard-response",85,217392,"0.0-3.24-2.24","edj38s5gs2q6kjs",402,"173.csv","","null","resources/images/coin2.png","null","",NA,NA,NA,NA,""
"image-keyboard-response",86,217690,"0.0-3.25-0.25","edj38s5gs2q6kjs",402,"173.csv","","296.3999999985099","resources/trios/L1T1A3.jpg","37","restless",0.5,0.6,0.6,0.187092194882112,"true"
"image-keyboard-response",87,218100,"0.0-3.25-1.25","edj38s5gs2q6kjs",402,"173.csv","","null","resources/maskTrios/L1BB.jpg","null","",NA,NA,NA,NA,""
"image-keyboard-response",88,219312,"0.0-3.25-2.25","edj38s5gs2q6kjs",402,"173.csv","","null","resources/images/coin2.png","null","",NA,NA,NA,NA,""
"image-keyboard-response",89,219626,"0.0-3.26-0.26","edj38s5gs2q6kjs",402,"173.csv","","312.5","resources/trios/L1T2A3.jpg","39","restless",0.5,0.6,0.7,0.149518013377428,"true"
"image-keyboard-response",90,220035,"0.0-3.26-1.26","edj38s5gs2q6kjs",402,"173.csv","","null","resources/maskTrios/BBA3.jpg","null","",NA,NA,NA,NA,""
"image-keyboard-response",91,221244,"0.0-3.26-2.26","edj38s5gs2q6kjs",402,"173.csv","","null","resources/images/coin2.png","null","",NA,NA,NA,NA,""
"image-keyboard-response",92,221675,"0.0-3.27-0.27","edj38s5gs2q6kjs",402,"173.csv","","429.3999999985099","resources/trios/L1T1A2.jpg","37","restless",0.5,0.6,0.7,0.102490466179299,"true"
"image-keyboard-response",93,222088,"0.0-3.27-1.27","edj38s5gs2q6kjs",402,"173.csv","","null","resources/maskTrios/L1BB.jpg","null","",NA,NA,NA,NA,""
"image-keyboard-response",94,223292,"0.0-3.27-2.27","edj38s5gs2q6kjs",402,"173.csv","","null","resources/images/coin2.png","null","",NA,NA,NA,NA,""
"image-keyboard-response",95,223789,"0.0-3.28-0.28","edj38s5gs2q6kjs",402,"173.csv","","495.29999999701977","resources/trios/L2T1A3.jpg","37","restless",0.5,0.5,0.7,0.329150149455906,"true"
"image-keyboard-response",96,224200,"0.0-3.28-1.28","edj38s5gs2q6kjs",402,"173.csv","","null","resources/maskTrios/L2BB.jpg","null","",NA,NA,NA,NA,""
"image-keyboard-response",97,225408,"0.0-3.28-2.28","edj38s5gs2q6kjs",402,"173.csv","","null","resources/images/coin2.png","null","",NA,NA,NA,NA,""
"image-keyboard-response",98,225744,"0.0-3.29-0.29","edj38s5gs2q6kjs",402,"173.csv","","334.80000000447035","resources/trios/L2T1A2.jpg","37","restless",0.5,0.5,0.7,0.404614541739773,"true"
"image-keyboard-response",99,226148,"0.0-3.29-1.29","edj38s5gs2q6kjs",402,"173.csv","","null","resources/maskTrios/L2BB.jpg","null","",NA,NA,NA,NA,""
"image-keyboard-response",100,227356,"0.0-3.29-2.29","edj38s5gs2q6kjs",402,"173.csv","","null","resources/images/coin2.png","null","",NA,NA,NA,NA,""
"image-keyboard-response",101,227677,"0.0-3.30-0.30","edj38s5gs2q6kjs",402,"173.csv","","319","resources/trios/L1T1A3.jpg","39","restless",0.5,0.5,0.7,0.0169923532205161,"true"
"image-keyboard-response",102,228084,"0.0-3.30-1.30","edj38s5gs2q6kjs",402,"173.csv","","null","resources/maskTrios/BBA3.jpg","null","",NA,NA,NA,NA,""
"image-keyboard-response",103,229296,"0.0-3.30-2.30","edj38s5gs2q6kjs",402,"173.csv","","null","resources/images/coin2.png","null","",NA,NA,NA,NA,""
"image-keyboard-response",104,229754,"0.0-3.31-0.31","edj38s5gs2q6kjs",402,"173.csv","","456.1000000014901","resources/trios/L2T2A2.jpg","39","restless",0.5,0.5,0.7,0.993727962191034,"false"
"image-keyboard-response",105,230160,"0.0-3.31-1.31","edj38s5gs2q6kjs",402,"173.csv","","null","resources/maskTrios/BBA2.jpg","null","",NA,NA,NA,NA,""
"image-keyboard-response",106,231368,"0.0-3.31-2.31","edj38s5gs2q6kjs",402,"173.csv","","null","resources/images/fishbone.png","null","",NA,NA,NA,NA,""
"image-keyboard-response",107,231647,"0.0-3.32-0.32","edj38s5gs2q6kjs",402,"173.csv","","277.1000000014901","resources/trios/L2T2A3.jpg","37","restless",0.5,0.5,0.7,0.858991827551535,"false"
"image-keyboard-response",108,232056,"0.0-3.32-1.32","edj38s5gs2q6kjs",402,"173.csv","","null","resources/maskTrios/L2BB.jpg","null","",NA,NA,NA,NA,""
"image-keyboard-response",109,233264,"0.0-3.32-2.32","edj38s5gs2q6kjs",402,"173.csv","","null","resources/images/fishbone.png","null","",NA,NA,NA,NA,""
"image-keyboard-response",110,233568,"0.0-3.33-0.33","edj38s5gs2q6kjs",402,"173.csv","","302.3999999985099","resources/trios/L1T2A2.jpg","37","restless",0.5,0.5,0.6,0.522736842786391,"false"
"image-keyboard-response",111,233977,"0.0-3.33-1.33","edj38s5gs2q6kjs",402,"173.csv","","null","resources/maskTrios/L1BB.jpg","null","",NA,NA,NA,NA,""
"image-keyboard-response",112,235181,"0.0-3.33-2.33","edj38s5gs2q6kjs",402,"173.csv","","null","resources/images/fishbone.png","null","",NA,NA,NA,NA,""
"image-keyboard-response",113,235492,"0.0-3.34-0.34","edj38s5gs2q6kjs",402,"173.csv","","309.69999999552965","resources/trios/L1T1A2.jpg","37","restless",0.5,0.6,0.6,0.475715460722698,"true"
"image-keyboard-response",114,235901,"0.0-3.34-1.34","edj38s5gs2q6kjs",402,"173.csv","","null","resources/maskTrios/L1BB.jpg","null","",NA,NA,NA,NA,""
"image-keyboard-response",115,237113,"0.0-3.34-2.34","edj38s5gs2q6kjs",402,"173.csv","","null","resources/images/coin2.png","null","",NA,NA,NA,NA,""
"image-keyboard-response",116,237377,"0.0-3.35-0.35","edj38s5gs2q6kjs",402,"173.csv","","263.1000000014901","resources/trios/L2T2A3.jpg","37","restless",0.5,0.6,0.6,0.405053440902327,"true"
"image-keyboard-response",117,237781,"0.0-3.35-1.35","edj38s5gs2q6kjs",402,"173.csv","","null","resources/maskTrios/L2BB.jpg","null","",NA,NA,NA,NA,""
"image-keyboard-response",118,238993,"0.0-3.35-2.35","edj38s5gs2q6kjs",402,"173.csv","","null","resources/images/coin2.png","null","",NA,NA,NA,NA,""
"image-keyboard-response",119,239250,"0.0-3.36-0.36","edj38s5gs2q6kjs",402,"173.csv","","255.89999999850988","resources/trios/L1T2A2.jpg","37","restless",0.5,0.6,0.7,0.0529557863750389,"true"
"image-keyboard-response",120,239657,"0.0-3.36-1.36","edj38s5gs2q6kjs",402,"173.csv","","null","resources/maskTrios/L1BB.jpg","null","",NA,NA,NA,NA,""
"image-keyboard-response",121,240865,"0.0-3.36-2.36","edj38s5gs2q6kjs",402,"173.csv","","null","resources/images/coin2.png","null","",NA,NA,NA,NA,""
"image-keyboard-response",122,241147,"0.0-3.37-0.37","edj38s5gs2q6kjs",402,"173.csv","","280.70000000298023","resources/trios/L2T1A3.jpg","37","restless",0.5,0.6,0.7,0.00966213290786233,"true"
"image-keyboard-response",123,241561,"0.0-3.37-1.37","edj38s5gs2q6kjs",402,"173.csv","","null","resources/maskTrios/L2BB.jpg","null","",NA,NA,NA,NA,""
"image-keyboard-response",124,242769,"0.0-3.37-2.37","edj38s5gs2q6kjs",402,"173.csv","","null","resources/images/coin2.png","null","",NA,NA,NA,NA,""
"image-keyboard-response",125,243009,"0.0-3.38-0.38","edj38s5gs2q6kjs",402,"173.csv","","238.60000000149012","resources/trios/L2T2A2.jpg","37","restless",0.4,0.6,0.7,0.0997768290416634,"true"
"image-keyboard-response",126,243417,"0.0-3.38-1.38","edj38s5gs2q6kjs",402,"173.csv","","null","resources/maskTrios/L2BB.jpg","null","",NA,NA,NA,NA,""
"image-keyboard-response",127,244625,"0.0-3.38-2.38","edj38s5gs2q6kjs",402,"173.csv","","null","resources/images/coin2.png","null","",NA,NA,NA,NA,""
"image-keyboard-response",128,245043,"0.0-3.39-0.39","edj38s5gs2q6kjs",402,"173.csv","","416.6000000014901","resources/trios/L2T1A2.jpg","37","restless",0.4,0.6,0.7,0.350095954528006,"true"
"image-keyboard-response",129,245457,"0.0-3.39-1.39","edj38s5gs2q6kjs",402,"173.csv","","null","resources/maskTrios/L2BB.jpg","null","",NA,NA,NA,NA,""
"image-keyboard-response",130,246665,"0.0-3.39-2.39","edj38s5gs2q6kjs",402,"173.csv","","null","resources/images/coin2.png","null","",NA,NA,NA,NA,""
"image-keyboard-response",131,247224,"0.0-3.40-0.40","edj38s5gs2q6kjs",402,"173.csv","","557.7000000029802","resources/trios/L2T2A3.jpg","39","restless",0.4,0.6,0.6,0.468150704059449,"true"
"image-keyboard-response",132,247633,"0.0-3.40-1.40","edj38s5gs2q6kjs",402,"173.csv","","null","resources/maskTrios/BBA3.jpg","null","",NA,NA,NA,NA,""
"image-keyboard-response",133,248841,"0.0-3.40-2.40","edj38s5gs2q6kjs",402,"173.csv","","null","resources/images/coin2.png","null","",NA,NA,NA,NA,""
"image-keyboard-response",134,249153,"0.0-3.41-0.41","edj38s5gs2q6kjs",402,"173.csv","","310.3999999985099","resources/trios/L1T2A3.jpg","39","restless",0.4,0.6,0.6,0.652062274195599,"false"
"image-keyboard-response",135,249561,"0.0-3.41-1.41","edj38s5gs2q6kjs",402,"173.csv","","null","resources/maskTrios/BBA3.jpg","null","",NA,NA,NA,NA,""
"image-keyboard-response",136,250765,"0.0-3.41-2.41","edj38s5gs2q6kjs",402,"173.csv","","null","resources/images/fishbone.png","null","",NA,NA,NA,NA,""
"image-keyboard-response",137,251099,"0.0-3.42-0.42","edj38s5gs2q6kjs",402,"173.csv","","332.20000000298023","resources/trios/L1T2A3.jpg","39","restless",0.4,0.6,0.6,0.958443325016524,"false"
"image-keyboard-response",138,251513,"0.0-3.42-1.42","edj38s5gs2q6kjs",402,"173.csv","","null","resources/maskTrios/BBA3.jpg","null","",NA,NA,NA,NA,""
"image-keyboard-response",139,252717,"0.0-3.42-2.42","edj38s5gs2q6kjs",402,"173.csv","","null","resources/images/fishbone.png","null","",NA,NA,NA,NA,""
"image-keyboard-response",140,252991,"0.0-3.43-0.43","edj38s5gs2q6kjs",402,"173.csv","","272.70000000298023","resources/trios/L1T1A2.jpg","37","restless",0.4,0.6,0.6,0.998358302837485,"false"
"image-keyboard-response",141,253401,"0.0-3.43-1.43","edj38s5gs2q6kjs",402,"173.csv","","null","resources/maskTrios/L1BB.jpg","null","",NA,NA,NA,NA,""
"image-keyboard-response",142,254609,"0.0-3.43-2.43","edj38s5gs2q6kjs",402,"173.csv","","null","resources/images/fishbone.png","null","",NA,NA,NA,NA,""
"image-keyboard-response",143,254966,"0.0-3.44-0.44","edj38s5gs2q6kjs",402,"173.csv","","355.29999999701977","resources/trios/L1T2A3.jpg","37","restless",0.4,0.6,0.6,0.99001133479913,"false"
"image-keyboard-response",144,255377,"0.0-3.44-1.44","edj38s5gs2q6kjs",402,"173.csv","","null","resources/maskTrios/L1BB.jpg","null","",NA,NA,NA,NA,""
"image-keyboard-response",145,256585,"0.0-3.44-2.44","edj38s5gs2q6kjs",402,"173.csv","","null","resources/images/fishbone.png","null","",NA,NA,NA,NA,""
"image-keyboard-response",146,256867,"0.0-3.45-0.45","edj38s5gs2q6kjs",402,"173.csv","","280.6000000014901","resources/trios/L1T1A2.jpg","39","restless",0.4,0.6,0.6,0.681803963873518,"false"
"image-keyboard-response",147,257281,"0.0-3.45-1.45","edj38s5gs2q6kjs",402,"173.csv","","null","resources/maskTrios/BBA2.jpg","null","",NA,NA,NA,NA,""
"image-keyboard-response",148,258489,"0.0-3.45-2.45","edj38s5gs2q6kjs",402,"173.csv","","null","resources/images/fishbone.png","null","",NA,NA,NA,NA,""
"image-keyboard-response",149,258899,"0.0-3.46-0.46","edj38s5gs2q6kjs",402,"173.csv","","408.19999999552965","resources/trios/L1T2A3.jpg","37","restless",0.4,0.6,0.6,0.262664666543412,"true"
"image-keyboard-response",150,259313,"0.0-3.46-1.46","edj38s5gs2q6kjs",402,"173.csv","","null","resources/maskTrios/L1BB.jpg","null","",NA,NA,NA,NA,""
"image-keyboard-response",151,260518,"0.0-3.46-2.46","edj38s5gs2q6kjs",402,"173.csv","","null","resources/images/coin2.png","null","",NA,NA,NA,NA,""
"image-keyboard-response",152,261372,"0.0-3.47-0.47","edj38s5gs2q6kjs",402,"173.csv","","851.8999999985099","resources/trios/L2T2A3.jpg","37","restless",0.3,0.6,0.6,0.00281117466771574,"true"
"image-keyboard-response",153,261785,"0.0-3.47-1.47","edj38s5gs2q6kjs",402,"173.csv","","null","resources/maskTrios/L2BB.jpg","null","",NA,NA,NA,NA,""
"image-keyboard-response",154,262993,"0.0-3.47-2.47","edj38s5gs2q6kjs",402,"173.csv","","null","resources/images/coin2.png","null","",NA,NA,NA,NA,""
"image-keyboard-response",155,263331,"0.0-3.48-0.48","edj38s5gs2q6kjs",402,"173.csv","","336","resources/trios/L2T1A2.jpg","37","restless",0.3,0.6,0.6,0.997709751299374,"false"
"image-keyboard-response",156,263737,"0.0-3.48-1.48","edj38s5gs2q6kjs",402,"173.csv","","null","resources/maskTrios/L2BB.jpg","null","",NA,NA,NA,NA,""
"image-keyboard-response",157,264945,"0.0-3.48-2.48","edj38s5gs2q6kjs",402,"173.csv","","null","resources/images/fishbone.png","null","",NA,NA,NA,NA,""
"image-keyboard-response",158,265251,"0.0-3.49-0.49","edj38s5gs2q6kjs",402,"173.csv","","304.1000000014901","resources/trios/L2T2A3.jpg","39","restless",0.3,0.6,0.6,0.615956303467108,"false"
"image-keyboard-response",159,265652,"0.0-3.49-1.49","edj38s5gs2q6kjs",402,"173.csv","","null","resources/maskTrios/BBA3.jpg","null","",NA,NA,NA,NA,""
"image-keyboard-response",160,266865,"0.0-3.49-2.49","edj38s5gs2q6kjs",402,"173.csv","","null","resources/images/fishbone.png","null","",NA,NA,NA,NA,""
"image-keyboard-response",161,267199,"0.0-3.50-0.50","edj38s5gs2q6kjs",402,"173.csv","","332.20000000298023","resources/trios/L1T2A2.jpg","37","restless",0.3,0.6,0.6,0.19923669476598,"true"
"image-keyboard-response",162,267610,"0.0-3.50-1.50","edj38s5gs2q6kjs",402,"173.csv","","null","resources/maskTrios/L1BB.jpg","null","",NA,NA,NA,NA,""
"image-keyboard-response",163,268818,"0.0-3.50-2.50","edj38s5gs2q6kjs",402,"173.csv","","null","resources/images/coin2.png","null","",NA,NA,NA,NA,""
"image-keyboard-response",164,269321,"0.0-3.51-0.51","edj38s5gs2q6kjs",402,"173.csv","","502.1000000014901","resources/trios/L1T1A2.jpg","37","restless",0.2,0.6,0.6,0.308539158150259,"false"
"image-keyboard-response",165,269728,"0.0-3.51-1.51","edj38s5gs2q6kjs",402,"173.csv","","null","resources/maskTrios/L1BB.jpg","null","",NA,NA,NA,NA,""
"image-keyboard-response",166,270938,"0.0-3.51-2.51","edj38s5gs2q6kjs",402,"173.csv","","null","resources/images/fishbone.png","null","",NA,NA,NA,NA,""
"image-keyboard-response",167,271475,"0.0-3.52-0.52","edj38s5gs2q6kjs",402,"173.csv","","535.8999999985099","resources/trios/L2T1A2.jpg","39","restless",0.2,0.5,0.6,0.857610962909668,"false"
"image-keyboard-response",168,271882,"0.0-3.52-1.52","edj38s5gs2q6kjs",402,"173.csv","","null","resources/maskTrios/BBA2.jpg","null","",NA,NA,NA,NA,""
"image-keyboard-response",169,273088,"0.0-3.52-2.52","edj38s5gs2q6kjs",402,"173.csv","","null","resources/images/fishbone.png","null","",NA,NA,NA,NA,""
"image-keyboard-response",170,273774,"0.0-3.53-0.53","edj38s5gs2q6kjs",402,"173.csv","","684","resources/trios/L1T1A3.jpg","37","restless",0.2,0.5,0.6,0.863021291888602,"false"
"image-keyboard-response",171,274182,"0.0-3.53-1.53","edj38s5gs2q6kjs",402,"173.csv","","null","resources/maskTrios/L1BB.jpg","null","",NA,NA,NA,NA,""
"image-keyboard-response",172,275394,"0.0-3.53-2.53","edj38s5gs2q6kjs",402,"173.csv","","null","resources/images/fishbone.png","null","",NA,NA,NA,NA,""
"image-keyboard-response",173,275811,"0.0-3.54-0.54","edj38s5gs2q6kjs",402,"173.csv","","415.79999999701977","resources/trios/L1T2A3.jpg","37","restless",0.2,0.5,0.6,0.208334324547376,"false"
"image-keyboard-response",174,276215,"0.0-3.54-1.54","edj38s5gs2q6kjs",402,"173.csv","","null","resources/maskTrios/L1BB.jpg","null","",NA,NA,NA,NA,""
"image-keyboard-response",175,277424,"0.0-3.54-2.54","edj38s5gs2q6kjs",402,"173.csv","","null","resources/images/fishbone.png","null","",NA,NA,NA,NA,""
"image-keyboard-response",176,277742,"0.0-3.55-0.55","edj38s5gs2q6kjs",402,"173.csv","","317","resources/trios/L1T1A3.jpg","37","restless",0.2,0.5,0.6,0.776086762843187,"false"
"image-keyboard-response",177,278154,"0.0-3.55-1.55","edj38s5gs2q6kjs",402,"173.csv","","null","resources/maskTrios/L1BB.jpg","null","",NA,NA,NA,NA,""
"image-keyboard-response",178,279362,"0.0-3.55-2.55","edj38s5gs2q6kjs",402,"173.csv","","null","resources/images/fishbone.png","null","",NA,NA,NA,NA,""
"image-keyboard-response",179,279701,"0.0-3.56-0.56","edj38s5gs2q6kjs",402,"173.csv","","337.6000000014901","resources/trios/L2T1A3.jpg","37","restless",0.2,0.5,0.6,0.0889347812073045,"true"
"image-keyboard-response",180,280114,"0.0-3.56-1.56","edj38s5gs2q6kjs",402,"173.csv","","null","resources/maskTrios/L2BB.jpg","null","",NA,NA,NA,NA,""
"image-keyboard-response",181,281322,"0.0-3.56-2.56","edj38s5gs2q6kjs",402,"173.csv","","null","resources/images/coin2.png","null","",NA,NA,NA,NA,""
"image-keyboard-response",182,282193,"0.0-3.57-0.57","edj38s5gs2q6kjs",402,"173.csv","","869.7000000029802","resources/trios/L1T1A2.jpg","37","restless",0.2,0.5,0.6,0.523571844864151,"false"
"image-keyboard-response",183,282598,"0.0-3.57-1.57","edj38s5gs2q6kjs",402,"173.csv","","null","resources/maskTrios/L1BB.jpg","null","",NA,NA,NA,NA,""
"image-keyboard-response",184,283810,"0.0-3.57-2.57","edj38s5gs2q6kjs",402,"173.csv","","null","resources/images/fishbone.png","null","",NA,NA,NA,NA,""
"image-keyboard-response",185,284135,"0.0-3.58-0.58","edj38s5gs2q6kjs",402,"173.csv","","323.5","resources/trios/L2T1A3.jpg","39","restless",0.2,0.5,0.6,0.641156073219689,"false"
"image-keyboard-response",186,284546,"0.0-3.58-1.58","edj38s5gs2q6kjs",402,"173.csv","","null","resources/maskTrios/BBA3.jpg","null","",NA,NA,NA,NA,""
"image-keyboard-response",187,285754,"0.0-3.58-2.58","edj38s5gs2q6kjs",402,"173.csv","","null","resources/images/fishbone.png","null","",NA,NA,NA,NA,""
"image-keyboard-response",188,286044,"0.0-3.59-0.59","edj38s5gs2q6kjs",402,"173.csv","","288.29999999701977","resources/trios/L1T1A2.jpg","37","restless",0.1,0.5,0.7,0.526022709570452,"false"
"image-keyboard-response",189,286458,"0.0-3.59-1.59","edj38s5gs2q6kjs",402,"173.csv","","null","resources/maskTrios/L1BB.jpg","null","",NA,NA,NA,NA,""
"image-keyboard-response",190,287662,"0.0-3.59-2.59","edj38s5gs2q6kjs",402,"173.csv","","null","resources/images/fishbone.png","null","",NA,NA,NA,NA,""
"image-keyboard-response",191,287945,"0.0-3.60-0.60","edj38s5gs2q6kjs",402,"173.csv","","281.29999999701977","resources/trios/L1T1A2.jpg","37","restless",0.1,0.5,0.7,0.289446309493979,"false"
"image-keyboard-response",192,288354,"0.0-3.60-1.60","edj38s5gs2q6kjs",402,"173.csv","","null","resources/maskTrios/L1BB.jpg","null","",NA,NA,NA,NA,""
"image-keyboard-response",193,289559,"0.0-3.60-2.60","edj38s5gs2q6kjs",402,"173.csv","","null","resources/images/fishbone.png","null","",NA,NA,NA,NA,""
"image-keyboard-response",194,289876,"0.0-3.61-0.61","edj38s5gs2q6kjs",402,"173.csv","","315.29999999701977","resources/trios/L2T1A3.jpg","37","restless",0.1,0.6,0.7,0.127646414903892,"false"
"image-keyboard-response",195,290290,"0.0-3.61-1.61","edj38s5gs2q6kjs",402,"173.csv","","null","resources/maskTrios/L2BB.jpg","null","",NA,NA,NA,NA,""
"image-keyboard-response",196,291498,"0.0-3.61-2.61","edj38s5gs2q6kjs",402,"173.csv","","null","resources/images/fishbone.png","null","",NA,NA,NA,NA,""
"image-keyboard-response",197,291839,"0.0-3.62-0.62","edj38s5gs2q6kjs",402,"173.csv","","339.20000000298023","resources/trios/L1T1A3.jpg","37","restless",0.1,0.6,0.7,0.159566078357194,"false"
"image-keyboard-response",198,292250,"0.0-3.62-1.62","edj38s5gs2q6kjs",402,"173.csv","","null","resources/maskTrios/L1BB.jpg","null","",NA,NA,NA,NA,""
"image-keyboard-response",199,293458,"0.0-3.62-2.62","edj38s5gs2q6kjs",402,"173.csv","","null","resources/images/fishbone.png","null","",NA,NA,NA,NA,""
"image-keyboard-response",200,293785,"0.0-3.63-0.63","edj38s5gs2q6kjs",402,"173.csv","","325.1000000014901","resources/trios/L1T1A3.jpg","39","restless",0.1,0.5,0.7,0.444144966819415,"true"
"image-keyboard-response",201,294194,"0.0-3.63-1.63","edj38s5gs2q6kjs",402,"173.csv","","null","resources/maskTrios/BBA3.jpg","null","",NA,NA,NA,NA,""
"image-keyboard-response",202,295402,"0.0-3.63-2.63","edj38s5gs2q6kjs",402,"173.csv","","null","resources/images/coin2.png","null","",NA,NA,NA,NA,""
"image-keyboard-response",203,295753,"0.0-3.64-0.64","edj38s5gs2q6kjs",402,"173.csv","","348.8999999985099","resources/trios/L1T2A3.jpg","39","restless",0.1,0.5,0.7,0.265334743489921,"true"
"image-keyboard-response",204,296162,"0.0-3.64-1.64","edj38s5gs2q6kjs",402,"173.csv","","null","resources/maskTrios/BBA3.jpg","null","",NA,NA,NA,NA,""
"image-keyboard-response",205,297366,"0.0-3.64-2.64","edj38s5gs2q6kjs",402,"173.csv","","null","resources/images/coin2.png","null","",NA,NA,NA,NA,""
"image-keyboard-response",206,297705,"0.0-3.65-0.65","edj38s5gs2q6kjs",402,"173.csv","","337","resources/trios/L2T2A3.jpg","39","restless",0.1,0.5,0.7,0.0786834680540875,"true"
"image-keyboard-response",207,298113,"0.0-3.65-1.65","edj38s5gs2q6kjs",402,"173.csv","","null","resources/maskTrios/BBA3.jpg","null","",NA,NA,NA,NA,""
"image-keyboard-response",208,299322,"0.0-3.65-2.65","edj38s5gs2q6kjs",402,"173.csv","","null","resources/images/coin2.png","null","",NA,NA,NA,NA,""
"image-keyboard-response",209,299616,"0.0-3.66-0.66","edj38s5gs2q6kjs",402,"173.csv","","292.20000000298023","resources/trios/L2T2A2.jpg","39","restless",0.1,0.5,0.7,0.543296955622708,"true"
"image-keyboard-response",210,300026,"0.0-3.66-1.66","edj38s5gs2q6kjs",402,"173.csv","","null","resources/maskTrios/BBA2.jpg","null","",NA,NA,NA,NA,""
"image-keyboard-response",211,301231,"0.0-3.66-2.66","edj38s5gs2q6kjs",402,"173.csv","","null","resources/images/coin2.png","null","",NA,NA,NA,NA,""
"image-keyboard-response",212,301551,"0.0-3.67-0.67","edj38s5gs2q6kjs",402,"173.csv","","319","resources/trios/L2T2A2.jpg","39","restless",0.1,0.5,0.7,0.0436723448012637,"true"
"image-keyboard-response",213,301955,"0.0-3.67-1.67","edj38s5gs2q6kjs",402,"173.csv","","null","resources/maskTrios/BBA2.jpg","null","",NA,NA,NA,NA,""
"image-keyboard-response",214,303160,"0.0-3.67-2.67","edj38s5gs2q6kjs",402,"173.csv","","null","resources/images/coin2.png","null","",NA,NA,NA,NA,""
"image-keyboard-response",215,303519,"0.0-3.68-0.68","edj38s5gs2q6kjs",402,"173.csv","","357","resources/trios/L2T2A3.jpg","39","restless",0.2,0.5,0.7,0.799479639991987,"false"
"image-keyboard-response",216,303927,"0.0-3.68-1.68","edj38s5gs2q6kjs",402,"173.csv","","null","resources/maskTrios/BBA3.jpg","null","",NA,NA,NA,NA,""
"image-keyboard-response",217,305136,"0.0-3.68-2.68","edj38s5gs2q6kjs",402,"173.csv","","null","resources/images/fishbone.png","null","",NA,NA,NA,NA,""
"image-keyboard-response",218,305439,"0.0-3.69-0.69","edj38s5gs2q6kjs",402,"173.csv","","301.5","resources/trios/L2T1A2.jpg","37","restless",0.3,0.5,0.7,0.816475744588812,"false"
"image-keyboard-response",219,305851,"0.0-3.69-1.69","edj38s5gs2q6kjs",402,"173.csv","","null","resources/maskTrios/L2BB.jpg","null","",NA,NA,NA,NA,""
"image-keyboard-response",220,307059,"0.0-3.69-2.69","edj38s5gs2q6kjs",402,"173.csv","","null","resources/images/fishbone.png","null","",NA,NA,NA,NA,""
"image-keyboard-response",221,307341,"0.0-3.70-0.70","edj38s5gs2q6kjs",402,"173.csv","","280.70000000298023","resources/trios/L2T2A2.jpg","39","restless",0.3,0.4,0.7,0.441781532337587,"true"
"image-keyboard-response",222,307755,"0.0-3.70-1.70","edj38s5gs2q6kjs",402,"173.csv","","null","resources/maskTrios/BBA2.jpg","null","",NA,NA,NA,NA,""
"image-keyboard-response",223,308963,"0.0-3.70-2.70","edj38s5gs2q6kjs",402,"173.csv","","null","resources/images/coin2.png","null","",NA,NA,NA,NA,""
"image-keyboard-response",224,309372,"0.0-3.71-0.71","edj38s5gs2q6kjs",402,"173.csv","","407.79999999701977","resources/trios/L1T1A3.jpg","39","restless",0.3,0.3,0.7,0.964812850171884,"false"
"image-keyboard-response",225,309779,"0.0-3.71-1.71","edj38s5gs2q6kjs",402,"173.csv","","null","resources/maskTrios/BBA3.jpg","null","",NA,NA,NA,NA,""
"image-keyboard-response",226,310983,"0.0-3.71-2.71","edj38s5gs2q6kjs",402,"173.csv","","null","resources/images/fishbone.png","null","",NA,NA,NA,NA,""
"image-keyboard-response",227,311344,"0.0-3.72-0.72","edj38s5gs2q6kjs",402,"173.csv","","359.5","resources/trios/L2T1A2.jpg","39","restless",0.3,0.2,0.7,0.514507718254195,"true"
"image-keyboard-response",228,311755,"0.0-3.72-1.72","edj38s5gs2q6kjs",402,"173.csv","","null","resources/maskTrios/BBA2.jpg","null","",NA,NA,NA,NA,""
"image-keyboard-response",229,312963,"0.0-3.72-2.72","edj38s5gs2q6kjs",402,"173.csv","","null","resources/images/coin2.png","null","",NA,NA,NA,NA,""
"image-keyboard-response",230,313263,"0.0-3.73-0.73","edj38s5gs2q6kjs",402,"173.csv","","298.5","resources/trios/L2T2A3.jpg","39","restless",0.3,0.2,0.7,0.988054501733939,"false"
"image-keyboard-response",231,313675,"0.0-3.73-1.73","edj38s5gs2q6kjs",402,"173.csv","","null","resources/maskTrios/BBA3.jpg","null","",NA,NA,NA,NA,""
"image-keyboard-response",232,314883,"0.0-3.73-2.73","edj38s5gs2q6kjs",402,"173.csv","","null","resources/images/fishbone.png","null","",NA,NA,NA,NA,""
"image-keyboard-response",233,315129,"0.0-3.74-0.74","edj38s5gs2q6kjs",402,"173.csv","","244.39999999850988","resources/trios/L2T2A3.jpg","39","restless",0.3,0.2,0.7,0.626064758226027,"true"
"image-keyboard-response",234,315539,"0.0-3.74-1.74","edj38s5gs2q6kjs",402,"173.csv","","null","resources/maskTrios/BBA3.jpg","null","",NA,NA,NA,NA,""
"image-keyboard-response",235,316747,"0.0-3.74-2.74","edj38s5gs2q6kjs",402,"173.csv","","null","resources/images/coin2.png","null","",NA,NA,NA,NA,""
"image-keyboard-response",236,317080,"0.0-3.75-0.75","edj38s5gs2q6kjs",402,"173.csv","","331.3999999985099","resources/trios/L1T1A3.jpg","37","restless",0.3,0.2,0.7,0.44625730403468,"false"
"image-keyboard-response",237,317491,"0.0-3.75-1.75","edj38s5gs2q6kjs",402,"173.csv","","null","resources/maskTrios/L1BB.jpg","null","",NA,NA,NA,NA,""
"image-keyboard-response",238,318695,"0.0-3.75-2.75","edj38s5gs2q6kjs",402,"173.csv","","null","resources/images/fishbone.png","null","",NA,NA,NA,NA,""
"image-keyboard-response",239,318931,"0.0-3.76-0.76","edj38s5gs2q6kjs",402,"173.csv","","234.5","resources/trios/L2T2A2.jpg","39","restless",0.2,0.2,0.6,0.241506084862856,"true"
"image-keyboard-response",240,319339,"0.0-3.76-1.76","edj38s5gs2q6kjs",402,"173.csv","","null","resources/maskTrios/BBA2.jpg","null","",NA,NA,NA,NA,""
"image-keyboard-response",241,320543,"0.0-3.76-2.76","edj38s5gs2q6kjs",402,"173.csv","","null","resources/images/coin2.png","null","",NA,NA,NA,NA,""
"image-keyboard-response",242,320831,"0.0-3.77-0.77","edj38s5gs2q6kjs",402,"173.csv","","287.5","resources/trios/L1T2A3.jpg","39","restless",0.2,0.2,0.6,0.351235327050378,"true"
"image-keyboard-response",243,321240,"0.0-3.77-1.77","edj38s5gs2q6kjs",402,"173.csv","","null","resources/maskTrios/BBA3.jpg","null","",NA,NA,NA,NA,""
"image-keyboard-response",244,322447,"0.0-3.77-2.77","edj38s5gs2q6kjs",402,"173.csv","","null","resources/images/coin2.png","null","",NA,NA,NA,NA,""
"image-keyboard-response",245,322705,"0.0-3.78-0.78","edj38s5gs2q6kjs",402,"173.csv","","256.6000000014901","resources/trios/L1T1A3.jpg","39","restless",0.2,0.2,0.6,0.303846278546473,"true"
"image-keyboard-response",246,323115,"0.0-3.78-1.78","edj38s5gs2q6kjs",402,"173.csv","","null","resources/maskTrios/BBA3.jpg","null","",NA,NA,NA,NA,""
"image-keyboard-response",247,324323,"0.0-3.78-2.78","edj38s5gs2q6kjs",402,"173.csv","","null","resources/images/coin2.png","null","",NA,NA,NA,NA,""
"image-keyboard-response",248,324624,"0.0-3.79-0.79","edj38s5gs2q6kjs",402,"173.csv","","299.5","resources/trios/L1T1A3.jpg","38","restless",0.2,0.2,0.6,0.202134391402635,"false"
"image-keyboard-response",249,325034,"0.0-3.79-1.79","edj38s5gs2q6kjs",402,"173.csv","","null","resources/maskTrios/BT1B.jpg","null","",NA,NA,NA,NA,""
"image-keyboard-response",250,326239,"0.0-3.79-2.79","edj38s5gs2q6kjs",402,"173.csv","","null","resources/images/fishbone.png","null","",NA,NA,NA,NA,""
"image-keyboard-response",251,326714,"0.0-3.80-0.80","edj38s5gs2q6kjs",402,"173.csv","","473.29999999701977","resources/trios/L2T2A2.jpg","37","restless",0.2,0.2,0.6,0.662520077029716,"false"
"image-keyboard-response",252,327118,"0.0-3.80-1.80","edj38s5gs2q6kjs",402,"173.csv","","null","resources/maskTrios/L2BB.jpg","null","",NA,NA,NA,NA,""
"image-keyboard-response",253,328331,"0.0-3.80-2.80","edj38s5gs2q6kjs",402,"173.csv","","null","resources/images/fishbone.png","null","",NA,NA,NA,NA,""
"image-keyboard-response",254,328660,"0.0-3.81-0.81","edj38s5gs2q6kjs",402,"173.csv","","327.20000000298023","resources/trios/L2T1A3.jpg","37","restless",0.2,0.3,0.6,0.979441353496091,"false"
"image-keyboard-response",255,329067,"0.0-3.81-1.81","edj38s5gs2q6kjs",402,"173.csv","","null","resources/maskTrios/L2BB.jpg","null","",NA,NA,NA,NA,""
"image-keyboard-response",256,330274,"0.0-3.81-2.81","edj38s5gs2q6kjs",402,"173.csv","","null","resources/images/fishbone.png","null","",NA,NA,NA,NA,""
"image-keyboard-response",257,330604,"0.0-3.82-0.82","edj38s5gs2q6kjs",402,"173.csv","","328.69999999552965","resources/trios/L1T2A3.jpg","39","restless",0.2,0.3,0.6,0.985569358370341,"false"
"image-keyboard-response",258,331010,"0.0-3.82-1.82","edj38s5gs2q6kjs",402,"173.csv","","null","resources/maskTrios/BBA3.jpg","null","",NA,NA,NA,NA,""
"image-keyboard-response",259,332216,"0.0-3.82-2.82","edj38s5gs2q6kjs",402,"173.csv","","null","resources/images/fishbone.png","null","",NA,NA,NA,NA,""
"image-keyboard-response",260,332526,"0.0-3.83-0.83","edj38s5gs2q6kjs",402,"173.csv","","308.6000000014901","resources/trios/L1T1A3.jpg","38","restless",0.2,0.4,0.6,0.256567467464906,"true"
"image-keyboard-response",261,332939,"0.0-3.83-1.83","edj38s5gs2q6kjs",402,"173.csv","","null","resources/maskTrios/BT1B.jpg","null","",NA,NA,NA,NA,""
"image-keyboard-response",262,334143,"0.0-3.83-2.83","edj38s5gs2q6kjs",402,"173.csv","","null","resources/images/coin2.png","null","",NA,NA,NA,NA,""
"image-keyboard-response",263,334514,"0.0-3.84-0.84","edj38s5gs2q6kjs",402,"173.csv","","370","resources/trios/L1T2A2.jpg","38","restless",0.2,0.4,0.6,0.772713010144292,"false"
"image-keyboard-response",264,334920,"0.0-3.84-1.84","edj38s5gs2q6kjs",402,"173.csv","","null","resources/maskTrios/BT2B.jpg","null","",NA,NA,NA,NA,""
"image-keyboard-response",265,336132,"0.0-3.84-2.84","edj38s5gs2q6kjs",402,"173.csv","","null","resources/images/fishbone.png","null","",NA,NA,NA,NA,""
"image-keyboard-response",266,336786,"0.0-3.85-0.85","edj38s5gs2q6kjs",402,"173.csv","","653","resources/trios/L2T1A3.jpg","37","restless",0.2,0.4,0.6,0.117400063253558,"true"
"image-keyboard-response",267,337193,"0.0-3.85-1.85","edj38s5gs2q6kjs",402,"173.csv","","null","resources/maskTrios/L2BB.jpg","null","",NA,NA,NA,NA,""
"image-keyboard-response",268,338404,"0.0-3.85-2.85","edj38s5gs2q6kjs",402,"173.csv","","null","resources/images/coin2.png","null","",NA,NA,NA,NA,""
"image-keyboard-response",269,338740,"0.0-3.86-0.86","edj38s5gs2q6kjs",402,"173.csv","","334.79999999701977","resources/trios/L2T2A3.jpg","37","restless",0.1,0.4,0.6,0.795787848380144,"false"
"image-keyboard-response",270,339148,"0.0-3.86-1.86","edj38s5gs2q6kjs",402,"173.csv","","null","resources/maskTrios/L2BB.jpg","null","",NA,NA,NA,NA,""
"image-keyboard-response",271,340356,"0.0-3.86-2.86","edj38s5gs2q6kjs",402,"173.csv","","null","resources/images/fishbone.png","null","",NA,NA,NA,NA,""
"image-keyboard-response",272,342560,"0.0-3.87-0.87","edj38s5gs2q6kjs",402,"173.csv","","2202.60000000149","resources/trios/L1T1A2.jpg","38","restless",0.1,0.4,0.6,0.467564566386293,"false"
"image-keyboard-response",273,342972,"0.0-3.87-1.87","edj38s5gs2q6kjs",402,"173.csv","","null","resources/maskTrios/BT1B.jpg","null","",NA,NA,NA,NA,""
"image-keyboard-response",274,344176,"0.0-3.87-2.87","edj38s5gs2q6kjs",402,"173.csv","","null","resources/images/fishbone.png","null","",NA,NA,NA,NA,""
"image-keyboard-response",275,344467,"0.0-3.88-0.88","edj38s5gs2q6kjs",402,"173.csv","","290.20000000298023","resources/trios/L2T2A3.jpg","39","restless",0.1,0.4,0.7,0.676732095480418,"true"
"image-keyboard-response",276,344876,"0.0-3.88-1.88","edj38s5gs2q6kjs",402,"173.csv","","null","resources/maskTrios/BBA3.jpg","null","",NA,NA,NA,NA,""
"image-keyboard-response",277,346079,"0.0-3.88-2.88","edj38s5gs2q6kjs",402,"173.csv","","null","resources/images/coin2.png","null","",NA,NA,NA,NA,""
"image-keyboard-response",278,346374,"0.0-3.89-0.89","edj38s5gs2q6kjs",402,"173.csv","","293.69999999552965","resources/trios/L1T2A2.jpg","39","restless",0.1,0.5,0.7,0.08873338484833,"true"
"image-keyboard-response",279,346788,"0.0-3.89-1.89","edj38s5gs2q6kjs",402,"173.csv","","null","resources/maskTrios/BBA2.jpg","null","",NA,NA,NA,NA,""
"image-keyboard-response",280,347996,"0.0-3.89-2.89","edj38s5gs2q6kjs",402,"173.csv","","null","resources/images/coin2.png","null","",NA,NA,NA,NA,""
"image-keyboard-response",281,348313,"0.0-3.90-0.90","edj38s5gs2q6kjs",402,"173.csv","","315.6000000014901","resources/trios/L2T2A2.jpg","39","restless",0.1,0.5,0.7,0.887297902809518,"false"
"image-keyboard-response",282,348723,"0.0-3.90-1.90","edj38s5gs2q6kjs",402,"173.csv","","null","resources/maskTrios/BBA2.jpg","null","",NA,NA,NA,NA,""
"image-keyboard-response",283,349932,"0.0-3.90-2.90","edj38s5gs2q6kjs",402,"173.csv","","null","resources/images/fishbone.png","null","",NA,NA,NA,NA,""
"image-keyboard-response",284,350256,"0.0-3.91-0.91","edj38s5gs2q6kjs",402,"173.csv","","322.70000000298023","resources/trios/L2T1A2.jpg","37","restless",0.1,0.5,0.7,0.786460848024515,"false"
"image-keyboard-response",285,350668,"0.0-3.91-1.91","edj38s5gs2q6kjs",402,"173.csv","","null","resources/maskTrios/L2BB.jpg","null","",NA,NA,NA,NA,""
"image-keyboard-response",286,351872,"0.0-3.91-2.91","edj38s5gs2q6kjs",402,"173.csv","","null","resources/images/fishbone.png","null","",NA,NA,NA,NA,""
"image-keyboard-response",287,352143,"0.0-3.92-0.92","edj38s5gs2q6kjs",402,"173.csv","","269.3999999985099","resources/trios/L1T2A2.jpg","38","restless",0.1,0.5,0.8,0.933175569657484,"false"
"image-keyboard-response",288,352556,"0.0-3.92-1.92","edj38s5gs2q6kjs",402,"173.csv","","null","resources/maskTrios/BT2B.jpg","null","",NA,NA,NA,NA,""
"image-keyboard-response",289,353764,"0.0-3.92-2.92","edj38s5gs2q6kjs",402,"173.csv","","null","resources/images/fishbone.png","null","",NA,NA,NA,NA,""
"image-keyboard-response",290,354035,"0.0-3.93-0.93","edj38s5gs2q6kjs",402,"173.csv","","269.6000000014901","resources/trios/L1T2A3.jpg","37","restless",0.1,0.5,0.8,0.528301644715848,"false"
"image-keyboard-response",291,354444,"0.0-3.93-1.93","edj38s5gs2q6kjs",402,"173.csv","","null","resources/maskTrios/L1BB.jpg","null","",NA,NA,NA,NA,""
"image-keyboard-response",292,355652,"0.0-3.93-2.93","edj38s5gs2q6kjs",402,"173.csv","","null","resources/images/fishbone.png","null","",NA,NA,NA,NA,""
"image-keyboard-response",293,355901,"0.0-3.94-0.94","edj38s5gs2q6kjs",402,"173.csv","","247.39999999850988","resources/trios/L2T2A3.jpg","39","restless",0.1,0.5,0.8,0.0657379770563427,"true"
"image-keyboard-response",294,356304,"0.0-3.94-1.94","edj38s5gs2q6kjs",402,"173.csv","","null","resources/maskTrios/BBA3.jpg","null","",NA,NA,NA,NA,""
"image-keyboard-response",295,357516,"0.0-3.94-2.94","edj38s5gs2q6kjs",402,"173.csv","","null","resources/images/coin2.png","null","",NA,NA,NA,NA,""
"image-keyboard-response",296,357867,"0.0-3.95-0.95","edj38s5gs2q6kjs",402,"173.csv","","349.70000000298023","resources/trios/L1T2A3.jpg","39","restless",0.2,0.5,0.7,0.573964059919077,"true"
"image-keyboard-response",297,358276,"0.0-3.95-1.95","edj38s5gs2q6kjs",402,"173.csv","","null","resources/maskTrios/BBA3.jpg","null","",NA,NA,NA,NA,""
"image-keyboard-response",298,359480,"0.0-3.95-2.95","edj38s5gs2q6kjs",402,"173.csv","","null","resources/images/coin2.png","null","",NA,NA,NA,NA,""
"image-keyboard-response",299,359758,"0.0-3.96-0.96","edj38s5gs2q6kjs",402,"173.csv","","276.3999999985099","resources/trios/L1T1A3.jpg","39","restless",0.2,0.5,0.7,0.148502824565738,"true"
"image-keyboard-response",300,360172,"0.0-3.96-1.96","edj38s5gs2q6kjs",402,"173.csv","","null","resources/maskTrios/BBA3.jpg","null","",NA,NA,NA,NA,""
"image-keyboard-response",301,361376,"0.0-3.96-2.96","edj38s5gs2q6kjs",402,"173.csv","","null","resources/images/coin2.png","null","",NA,NA,NA,NA,""
"image-keyboard-response",302,361669,"0.0-3.97-0.97","edj38s5gs2q6kjs",402,"173.csv","","291.1000000014901","resources/trios/L1T1A2.jpg","39","restless",0.2,0.5,0.7,0.866733377485556,"false"
"image-keyboard-response",303,362076,"0.0-3.97-1.97","edj38s5gs2q6kjs",402,"173.csv","","null","resources/maskTrios/BBA2.jpg","null","",NA,NA,NA,NA,""
"image-keyboard-response",304,363284,"0.0-3.97-2.97","edj38s5gs2q6kjs",402,"173.csv","","null","resources/images/fishbone.png","null","",NA,NA,NA,NA,""
"image-keyboard-response",305,363582,"0.0-3.98-0.98","edj38s5gs2q6kjs",402,"173.csv","","296.70000000298023","resources/trios/L1T2A2.jpg","37","restless",0.2,0.5,0.7,0.346391881156743,"false"
"image-keyboard-response",306,363988,"0.0-3.98-1.98","edj38s5gs2q6kjs",402,"173.csv","","null","resources/maskTrios/L1BB.jpg","null","",NA,NA,NA,NA,""
"image-keyboard-response",307,365196,"0.0-3.98-2.98","edj38s5gs2q6kjs",402,"173.csv","","null","resources/images/fishbone.png","null","",NA,NA,NA,NA,""
"image-keyboard-response",308,365461,"0.0-3.99-0.99","edj38s5gs2q6kjs",402,"173.csv","","263.6000000014901","resources/trios/L1T1A2.jpg","38","restless",0.2,0.5,0.7,0.462059300802058,"true"
"image-keyboard-response",309,365864,"0.0-3.99-1.99","edj38s5gs2q6kjs",402,"173.csv","","null","resources/maskTrios/BT1B.jpg","null","",NA,NA,NA,NA,""
"image-keyboard-response",310,367074,"0.0-3.99-2.99","edj38s5gs2q6kjs",402,"173.csv","","null","resources/images/coin2.png","null","",NA,NA,NA,NA,""
"image-keyboard-response",311,367407,"0.0-3.100-0.100","edj38s5gs2q6kjs",402,"173.csv","","332.1000000014901","resources/trios/L2T2A2.jpg","38","restless",0.2,0.5,0.7,0.935883069489978,"false"
"image-keyboard-response",312,367821,"0.0-3.100-1.100","edj38s5gs2q6kjs",402,"173.csv","","null","resources/maskTrios/BT2B.jpg","null","",NA,NA,NA,NA,""
"image-keyboard-response",313,369029,"0.0-3.100-2.100","edj38s5gs2q6kjs",402,"173.csv","","null","resources/images/fishbone.png","null","",NA,NA,NA,NA,""
"image-keyboard-response",314,369377,"0.0-3.101-0.101","edj38s5gs2q6kjs",402,"173.csv","","347.29999999701977","resources/trios/L1T2A2.jpg","37","restless",0.2,0.5,0.7,0.753421310578265,"false"
"image-keyboard-response",315,369788,"0.0-3.101-1.101","edj38s5gs2q6kjs",402,"173.csv","","null","resources/maskTrios/L1BB.jpg","null","",NA,NA,NA,NA,""
"image-keyboard-response",316,370997,"0.0-3.101-2.101","edj38s5gs2q6kjs",402,"173.csv","","null","resources/images/fishbone.png","null","",NA,NA,NA,NA,""
"image-keyboard-response",317,371276,"0.0-3.102-0.102","edj38s5gs2q6kjs",402,"173.csv","","277.8999999985099","resources/trios/L2T2A3.jpg","38","restless",0.1,0.5,0.7,0.0418550203462247,"true"
"image-keyboard-response",318,371682,"0.0-3.102-1.102","edj38s5gs2q6kjs",402,"173.csv","","null","resources/maskTrios/BT2B.jpg","null","",NA,NA,NA,NA,""
"image-keyboard-response",319,372893,"0.0-3.102-2.102","edj38s5gs2q6kjs",402,"173.csv","","null","resources/images/coin2.png","null","",NA,NA,NA,NA,""
"image-keyboard-response",320,373137,"0.0-3.103-0.103","edj38s5gs2q6kjs",402,"173.csv","","242.60000000149012","resources/trios/L2T2A3.jpg","38","restless",0.2,0.5,0.7,0.209809987113028,"true"
"image-keyboard-response",321,373544,"0.0-3.103-1.103","edj38s5gs2q6kjs",402,"173.csv","","null","resources/maskTrios/BT2B.jpg","null","",NA,NA,NA,NA,""
"image-keyboard-response",322,374753,"0.0-3.103-2.103","edj38s5gs2q6kjs",402,"173.csv","","null","resources/images/coin2.png","null","",NA,NA,NA,NA,""
"image-keyboard-response",323,375040,"0.0-3.104-0.104","edj38s5gs2q6kjs",402,"173.csv","","285.29999999701977","resources/trios/L2T2A3.jpg","38","restless",0.2,0.5,0.7,0.648217084975093,"false"
"image-keyboard-response",324,375453,"0.0-3.104-1.104","edj38s5gs2q6kjs",402,"173.csv","","null","resources/maskTrios/BT2B.jpg","null","",NA,NA,NA,NA,""
"image-keyboard-response",325,376661,"0.0-3.104-2.104","edj38s5gs2q6kjs",402,"173.csv","","null","resources/images/fishbone.png","null","",NA,NA,NA,NA,""
"image-keyboard-response",326,376944,"0.0-3.105-0.105","edj38s5gs2q6kjs",402,"173.csv","","281.79999999701977","resources/trios/L2T1A3.jpg","39","restless",0.2,0.5,0.7,0.372911238209405,"true"
"image-keyboard-response",327,377352,"0.0-3.105-1.105","edj38s5gs2q6kjs",402,"173.csv","","null","resources/maskTrios/BBA3.jpg","null","",NA,NA,NA,NA,""
"image-keyboard-response",328,378561,"0.0-3.105-2.105","edj38s5gs2q6kjs",402,"173.csv","","null","resources/images/coin2.png","null","",NA,NA,NA,NA,""
"image-keyboard-response",329,378822,"0.0-3.106-0.106","edj38s5gs2q6kjs",402,"173.csv","","259.29999999701977","resources/trios/L1T2A2.jpg","39","restless",0.3,0.5,0.8,0.26512481654699,"true"
"image-keyboard-response",330,379229,"0.0-3.106-1.106","edj38s5gs2q6kjs",402,"173.csv","","null","resources/maskTrios/BBA2.jpg","null","",NA,NA,NA,NA,""
"image-keyboard-response",331,380433,"0.0-3.106-2.106","edj38s5gs2q6kjs",402,"173.csv","","null","resources/images/coin2.png","null","",NA,NA,NA,NA,""
"image-keyboard-response",332,380981,"0.0-3.107-0.107","edj38s5gs2q6kjs",402,"173.csv","","547.3000000044703","resources/trios/L2T2A2.jpg","39","restless",0.3,0.5,0.8,0.403894133427577,"true"
"image-keyboard-response",333,381389,"0.0-3.107-1.107","edj38s5gs2q6kjs",402,"173.csv","","null","resources/maskTrios/BBA2.jpg","null","",NA,NA,NA,NA,""
"image-keyboard-response",334,382597,"0.0-3.107-2.107","edj38s5gs2q6kjs",402,"173.csv","","null","resources/images/coin2.png","null","",NA,NA,NA,NA,""
"image-keyboard-response",335,382910,"0.0-3.108-0.108","edj38s5gs2q6kjs",402,"173.csv","","311.5","resources/trios/L1T2A2.jpg","39","restless",0.4,0.5,0.8,0.140329889690962,"true"
"image-keyboard-response",336,383317,"0.0-3.108-1.108","edj38s5gs2q6kjs",402,"173.csv","","null","resources/maskTrios/BBA2.jpg","null","",NA,NA,NA,NA,""
"image-keyboard-response",337,384525,"0.0-3.108-2.108","edj38s5gs2q6kjs",402,"173.csv","","null","resources/images/coin2.png","null","",NA,NA,NA,NA,""
"image-keyboard-response",338,384896,"0.0-3.109-0.109","edj38s5gs2q6kjs",402,"173.csv","","369.6000000014901","resources/trios/L1T2A3.jpg","39","restless",0.4,0.5,0.8,0.132247809748324,"true"
"image-keyboard-response",339,385307,"0.0-3.109-1.109","edj38s5gs2q6kjs",402,"173.csv","","null","resources/maskTrios/BBA3.jpg","null","",NA,NA,NA,NA,""
"image-keyboard-response",340,386513,"0.0-3.109-2.109","edj38s5gs2q6kjs",402,"173.csv","","null","resources/images/coin2.png","null","",NA,NA,NA,NA,""
"image-keyboard-response",341,412238,"0.0-3.110-0.110","edj38s5gs2q6kjs",402,"173.csv","","25722.39999999851","resources/trios/L1T1A3.jpg","39","restless",0.4,0.5,0.8,0.480177402545505,"true"
"image-keyboard-response",342,412646,"0.0-3.110-1.110","edj38s5gs2q6kjs",402,"173.csv","","null","resources/maskTrios/BBA3.jpg","null","",NA,NA,NA,NA,""
"image-keyboard-response",343,413854,"0.0-3.110-2.110","edj38s5gs2q6kjs",402,"173.csv","","null","resources/images/coin2.png","null","",NA,NA,NA,NA,""
"image-keyboard-response",344,414205,"0.0-3.111-0.111","edj38s5gs2q6kjs",402,"173.csv","","349.5","resources/trios/L1T2A3.jpg","39","restless",0.4,0.5,0.9,0.762210086370479,"true"
"image-keyboard-response",345,414610,"0.0-3.111-1.111","edj38s5gs2q6kjs",402,"173.csv","","null","resources/maskTrios/BBA3.jpg","null","",NA,NA,NA,NA,""
"image-keyboard-response",346,415822,"0.0-3.111-2.111","edj38s5gs2q6kjs",402,"173.csv","","null","resources/images/coin2.png","null","",NA,NA,NA,NA,""
"image-keyboard-response",347,416126,"0.0-3.112-0.112","edj38s5gs2q6kjs",402,"173.csv","","302.5","resources/trios/L1T1A3.jpg","39","restless",0.4,0.6,0.8,0.497746705652543,"true"
"image-keyboard-response",348,416534,"0.0-3.112-1.112","edj38s5gs2q6kjs",402,"173.csv","","null","resources/maskTrios/BBA3.jpg","null","",NA,NA,NA,NA,""
"image-keyboard-response",349,417742,"0.0-3.112-2.112","edj38s5gs2q6kjs",402,"173.csv","","null","resources/images/coin2.png","null","",NA,NA,NA,NA,""
"image-keyboard-response",350,418020,"0.0-3.113-0.113","edj38s5gs2q6kjs",402,"173.csv","","276.6000000014901","resources/trios/L2T2A3.jpg","39","restless",0.4,0.6,0.8,0.855156677255877,"false"
"image-keyboard-response",351,418430,"0.0-3.113-1.113","edj38s5gs2q6kjs",402,"173.csv","","null","resources/maskTrios/BBA3.jpg","null","",NA,NA,NA,NA,""
"image-keyboard-response",352,419637,"0.0-3.113-2.113","edj38s5gs2q6kjs",402,"173.csv","","null","resources/images/fishbone.png","null","",NA,NA,NA,NA,""
"image-keyboard-response",353,419990,"0.0-3.114-0.114","edj38s5gs2q6kjs",402,"173.csv","","352","resources/trios/L2T2A3.jpg","37","restless",0.4,0.6,0.8,0.493225114736496,"false"
"image-keyboard-response",354,420397,"0.0-3.114-1.114","edj38s5gs2q6kjs",402,"173.csv","","null","resources/maskTrios/L2BB.jpg","null","",NA,NA,NA,NA,""
"image-keyboard-response",355,421606,"0.0-3.114-2.114","edj38s5gs2q6kjs",402,"173.csv","","null","resources/images/fishbone.png","null","",NA,NA,NA,NA,""
"image-keyboard-response",356,421948,"0.0-3.115-0.115","edj38s5gs2q6kjs",402,"173.csv","","340.5","resources/trios/L1T2A3.jpg","38","restless",0.4,0.6,0.9,0.0734564534109714,"true"
"image-keyboard-response",357,422354,"0.0-3.115-1.115","edj38s5gs2q6kjs",402,"173.csv","","null","resources/maskTrios/BT2B.jpg","null","",NA,NA,NA,NA,""
"image-keyboard-response",358,423566,"0.0-3.115-2.115","edj38s5gs2q6kjs",402,"173.csv","","null","resources/images/coin2.png","null","",NA,NA,NA,NA,""
"image-keyboard-response",359,423886,"0.0-3.116-0.116","edj38s5gs2q6kjs",402,"173.csv","","319","resources/trios/L2T2A2.jpg","38","restless",0.4,0.6,0.9,0.309620822828617,"true"
"image-keyboard-response",360,424289,"0.0-3.116-1.116","edj38s5gs2q6kjs",402,"173.csv","","null","resources/maskTrios/BT2B.jpg","null","",NA,NA,NA,NA,""
"image-keyboard-response",361,425502,"0.0-3.116-2.116","edj38s5gs2q6kjs",402,"173.csv","","null","resources/images/coin2.png","null","",NA,NA,NA,NA,""
"image-keyboard-response",362,425903,"0.0-3.117-0.117","edj38s5gs2q6kjs",402,"173.csv","","399.1000000014901","resources/trios/L1T2A2.jpg","38","restless",0.4,0.6,0.9,0.290307191279485,"true"
"image-keyboard-response",363,426307,"0.0-3.117-1.117","edj38s5gs2q6kjs",402,"173.csv","","null","resources/maskTrios/BT2B.jpg","null","",NA,NA,NA,NA,""
"image-keyboard-response",364,427518,"0.0-3.117-2.117","edj38s5gs2q6kjs",402,"173.csv","","null","resources/images/coin2.png","null","",NA,NA,NA,NA,""
"image-keyboard-response",365,428377,"0.0-3.118-0.118","edj38s5gs2q6kjs",402,"173.csv","","857.5","resources/trios/L2T2A2.jpg","38","restless",0.4,0.6,0.9,0.0255334241967522,"true"
"image-keyboard-response",366,428790,"0.0-3.118-1.118","edj38s5gs2q6kjs",402,"173.csv","","null","resources/maskTrios/BT2B.jpg","null","",NA,NA,NA,NA,""
"image-keyboard-response",367,429994,"0.0-3.118-2.118","edj38s5gs2q6kjs",402,"173.csv","","null","resources/images/coin2.png","null","",NA,NA,NA,NA,""
"image-keyboard-response",368,430301,"0.0-3.119-0.119","edj38s5gs2q6kjs",402,"173.csv","","304.8999999985099","resources/trios/L1T2A2.jpg","39","restless",0.4,0.6,0.9,0.753022181924964,"true"
"image-keyboard-response",369,430709,"0.0-3.119-1.119","edj38s5gs2q6kjs",402,"173.csv","","null","resources/maskTrios/BBA2.jpg","null","",NA,NA,NA,NA,""
"image-keyboard-response",370,431918,"0.0-3.119-2.119","edj38s5gs2q6kjs",402,"173.csv","","null","resources/images/coin2.png","null","",NA,NA,NA,NA,""
"image-keyboard-response",371,432253,"0.0-3.120-0.120","edj38s5gs2q6kjs",402,"173.csv","","332.6000000014901","resources/trios/L2T1A2.jpg","39","restless",0.4,0.6,0.9,0.0134681738984423,"true"
"image-keyboard-response",372,432662,"0.0-3.120-1.120","edj38s5gs2q6kjs",402,"173.csv","","null","resources/maskTrios/BBA2.jpg","null","",NA,NA,NA,NA,""
"image-keyboard-response",373,433869,"0.0-3.120-2.120","edj38s5gs2q6kjs",402,"173.csv","","null","resources/images/coin2.png","null","",NA,NA,NA,NA,""
"image-keyboard-response",374,434335,"0.0-3.121-0.121","edj38s5gs2q6kjs",402,"173.csv","","464.3999999985099","resources/trios/L1T2A3.jpg","39","restless",0.4,0.6,0.9,0.928172339412755,"false"
"image-keyboard-response",375,434743,"0.0-3.121-1.121","edj38s5gs2q6kjs",402,"173.csv","","null","resources/maskTrios/BBA3.jpg","null","",NA,NA,NA,NA,""
"image-keyboard-response",376,435951,"0.0-3.121-2.121","edj38s5gs2q6kjs",402,"173.csv","","null","resources/images/fishbone.png","null","",NA,NA,NA,NA,""
"image-keyboard-response",377,436292,"0.0-3.122-0.122","edj38s5gs2q6kjs",402,"173.csv","","339.79999999701977","resources/trios/L2T1A3.jpg","37","restless",0.4,0.6,0.9,0.883644671834166,"false"
"image-keyboard-response",378,436703,"0.0-3.122-1.122","edj38s5gs2q6kjs",402,"173.csv","","null","resources/maskTrios/L2BB.jpg","null","",NA,NA,NA,NA,""
"image-keyboard-response",379,437911,"0.0-3.122-2.122","edj38s5gs2q6kjs",402,"173.csv","","null","resources/images/fishbone.png","null","",NA,NA,NA,NA,""
"image-keyboard-response",380,438207,"0.0-3.123-0.123","edj38s5gs2q6kjs",402,"173.csv","","295.1000000014901","resources/trios/L2T1A3.jpg","38","restless",0.4,0.6,0.9,0.860635034286035,"false"
"image-keyboard-response",381,438611,"0.0-3.123-1.123","edj38s5gs2q6kjs",402,"173.csv","","null","resources/maskTrios/BT1B.jpg","null","",NA,NA,NA,NA,""
"image-keyboard-response",382,439823,"0.0-3.123-2.123","edj38s5gs2q6kjs",402,"173.csv","","null","resources/images/fishbone.png","null","",NA,NA,NA,NA,""
"image-keyboard-response",383,440031,"0.0-3.124-0.124","edj38s5gs2q6kjs",402,"173.csv","","207","resources/trios/L1T2A3.jpg","37","restless",0.5,0.6,0.8,0.951090242497755,"false"
"image-keyboard-response",384,440437,"0.0-3.124-1.124","edj38s5gs2q6kjs",402,"173.csv","","null","resources/maskTrios/L1BB.jpg","null","",NA,NA,NA,NA,""
"image-keyboard-response",385,441645,"0.0-3.124-2.124","edj38s5gs2q6kjs",402,"173.csv","","null","resources/images/fishbone.png","null","",NA,NA,NA,NA,""
"image-keyboard-response",386,441906,"0.0-3.125-0.125","edj38s5gs2q6kjs",402,"173.csv","","259.79999999701977","resources/trios/L1T1A3.jpg","39","restless",0.5,0.6,0.8,0.203346670471468,"true"
"image-keyboard-response",387,442316,"0.0-3.125-1.125","edj38s5gs2q6kjs",402,"173.csv","","null","resources/maskTrios/BBA3.jpg","null","",NA,NA,NA,NA,""
"image-keyboard-response",388,443527,"0.0-3.125-2.125","edj38s5gs2q6kjs",402,"173.csv","","null","resources/images/coin2.png","null","",NA,NA,NA,NA,""
"image-keyboard-response",389,443967,"0.0-3.126-0.126","edj38s5gs2q6kjs",402,"173.csv","","438.6000000014901","resources/trios/L2T1A3.jpg","39","restless",0.5,0.6,0.7,0.843753001250808,"false"
"image-keyboard-response",390,444375,"0.0-3.126-1.126","edj38s5gs2q6kjs",402,"173.csv","","null","resources/maskTrios/BBA3.jpg","null","",NA,NA,NA,NA,""
"image-keyboard-response",391,445583,"0.0-3.126-2.126","edj38s5gs2q6kjs",402,"173.csv","","null","resources/images/fishbone.png","null","",NA,NA,NA,NA,""
"image-keyboard-response",392,445892,"0.0-3.127-0.127","edj38s5gs2q6kjs",402,"173.csv","","307.8999999985099","resources/trios/L1T2A2.jpg","37","restless",0.5,0.6,0.7,0.777278918521408,"false"
"image-keyboard-response",393,446303,"0.0-3.127-1.127","edj38s5gs2q6kjs",402,"173.csv","","null","resources/maskTrios/L1BB.jpg","null","",NA,NA,NA,NA,""
"image-keyboard-response",394,447511,"0.0-3.127-2.127","edj38s5gs2q6kjs",402,"173.csv","","null","resources/images/fishbone.png","null","",NA,NA,NA,NA,""
"image-keyboard-response",395,447809,"0.0-3.128-0.128","edj38s5gs2q6kjs",402,"173.csv","","296.70000000298023","resources/trios/L1T2A3.jpg","39","restless",0.5,0.5,0.7,0.140610683087451,"true"
"image-keyboard-response",396,448220,"0.0-3.128-1.128","edj38s5gs2q6kjs",402,"173.csv","","null","resources/maskTrios/BBA3.jpg","null","",NA,NA,NA,NA,""
"image-keyboard-response",397,449431,"0.0-3.128-2.128","edj38s5gs2q6kjs",402,"173.csv","","null","resources/images/coin2.png","null","",NA,NA,NA,NA,""
"image-keyboard-response",398,449868,"0.0-3.129-0.129","edj38s5gs2q6kjs",402,"173.csv","","435.69999999552965","resources/trios/L1T2A3.jpg","39","restless",0.5,0.5,0.7,0.0028084790455194,"true"
"image-keyboard-response",399,450274,"0.0-3.129-1.129","edj38s5gs2q6kjs",402,"173.csv","","null","resources/maskTrios/BBA3.jpg","null","",NA,NA,NA,NA,""
"image-keyboard-response",400,451483,"0.0-3.129-2.129","edj38s5gs2q6kjs",402,"173.csv","","null","resources/images/coin2.png","null","",NA,NA,NA,NA,""
"image-keyboard-response",401,451705,"0.0-3.130-0.130","edj38s5gs2q6kjs",402,"173.csv","","220.39999999850988","resources/trios/L2T1A2.jpg","39","restless",0.5,0.5,0.7,0.692000187363042,"true"
"image-keyboard-response",402,452119,"0.0-3.130-1.130","edj38s5gs2q6kjs",402,"173.csv","","null","resources/maskTrios/BBA2.jpg","null","",NA,NA,NA,NA,""
"image-keyboard-response",403,453327,"0.0-3.130-2.130","edj38s5gs2q6kjs",402,"173.csv","","null","resources/images/coin2.png","null","",NA,NA,NA,NA,""
"image-keyboard-response",404,453660,"0.0-3.131-0.131","edj38s5gs2q6kjs",402,"173.csv","","331.3999999985099","resources/trios/L1T2A2.jpg","39","restless",0.5,0.5,0.7,0.442598102318616,"true"
"image-keyboard-response",405,454067,"0.0-3.131-1.131","edj38s5gs2q6kjs",402,"173.csv","","null","resources/maskTrios/BBA2.jpg","null","",NA,NA,NA,NA,""
"image-keyboard-response",406,455278,"0.0-3.131-2.131","edj38s5gs2q6kjs",402,"173.csv","","null","resources/images/coin2.png","null","",NA,NA,NA,NA,""
"image-keyboard-response",407,455585,"0.0-3.132-0.132","edj38s5gs2q6kjs",402,"173.csv","","305.1000000014901","resources/trios/L1T1A3.jpg","39","restless",0.5,0.5,0.7,0.259438693338651,"true"
"image-keyboard-response",408,455999,"0.0-3.132-1.132","edj38s5gs2q6kjs",402,"173.csv","","null","resources/maskTrios/BBA3.jpg","null","",NA,NA,NA,NA,""
"image-keyboard-response",409,457207,"0.0-3.132-2.132","edj38s5gs2q6kjs",402,"173.csv","","null","resources/images/coin2.png","null","",NA,NA,NA,NA,""
"image-keyboard-response",410,457643,"0.0-3.133-0.133","edj38s5gs2q6kjs",402,"173.csv","","435.1000000014901","resources/trios/L1T2A3.jpg","39","restless",0.5,0.5,0.7,0.334288849986844,"true"
"image-keyboard-response",411,458055,"0.0-3.133-1.133","edj38s5gs2q6kjs",402,"173.csv","","null","resources/maskTrios/BBA3.jpg","null","",NA,NA,NA,NA,""
"image-keyboard-response",412,459262,"0.0-3.133-2.133","edj38s5gs2q6kjs",402,"173.csv","","null","resources/images/coin2.png","null","",NA,NA,NA,NA,""
"image-keyboard-response",413,459864,"0.0-3.134-0.134","edj38s5gs2q6kjs",402,"173.csv","","600.4000000059605","resources/trios/L2T1A2.jpg","39","restless",0.5,0.5,0.7,0.0809111272008718,"true"
"image-keyboard-response",414,460269,"0.0-3.134-1.134","edj38s5gs2q6kjs",402,"173.csv","","null","resources/maskTrios/BBA2.jpg","null","",NA,NA,NA,NA,""
"image-keyboard-response",415,461476,"0.0-3.134-2.134","edj38s5gs2q6kjs",402,"173.csv","","null","resources/images/coin2.png","null","",NA,NA,NA,NA,""
"image-keyboard-response",416,463337,"0.0-3.135-0.135","edj38s5gs2q6kjs",402,"173.csv","","1859.5","resources/trios/L1T2A3.jpg","38","restless",0.5,0.5,0.7,0.829543572577632,"false"
"image-keyboard-response",417,463743,"0.0-3.135-1.135","edj38s5gs2q6kjs",402,"173.csv","","null","resources/maskTrios/BT2B.jpg","null","",NA,NA,NA,NA,""
"image-keyboard-response",418,464951,"0.0-3.135-2.135","edj38s5gs2q6kjs",402,"173.csv","","null","resources/images/fishbone.png","null","",NA,NA,NA,NA,""
"image-keyboard-response",419,465286,"0.0-3.136-0.136","edj38s5gs2q6kjs",402,"173.csv","","332.8999999985099","resources/trios/L2T2A2.jpg","39","restless",0.5,0.5,0.7,0.511574265174028,"true"
"image-keyboard-response",420,465691,"0.0-3.136-1.136","edj38s5gs2q6kjs",402,"173.csv","","null","resources/maskTrios/BBA2.jpg","null","",NA,NA,NA,NA,""
"image-keyboard-response",421,466903,"0.0-3.136-2.136","edj38s5gs2q6kjs",402,"173.csv","","null","resources/images/coin2.png","null","",NA,NA,NA,NA,""
"image-keyboard-response",422,467359,"0.0-3.137-0.137","edj38s5gs2q6kjs",402,"173.csv","","455.09999999403954","resources/trios/L1T2A2.jpg","39","restless",0.4,0.5,0.7,0.0285917111024858,"true"
"image-keyboard-response",423,467768,"0.0-3.137-1.137","edj38s5gs2q6kjs",402,"173.csv","","null","resources/maskTrios/BBA2.jpg","null","",NA,NA,NA,NA,""
"image-keyboard-response",424,468976,"0.0-3.137-2.137","edj38s5gs2q6kjs",402,"173.csv","","null","resources/images/coin2.png","null","",NA,NA,NA,NA,""
"image-keyboard-response",425,469481,"0.0-3.138-0.138","edj38s5gs2q6kjs",402,"173.csv","","504.3999999985099","resources/trios/L1T1A2.jpg","39","restless",0.4,0.5,0.7,0.810599647409622,"false"
"image-keyboard-response",426,469895,"0.0-3.138-1.138","edj38s5gs2q6kjs",402,"173.csv","","null","resources/maskTrios/BBA2.jpg","null","",NA,NA,NA,NA,""
"image-keyboard-response",427,471100,"0.0-3.138-2.138","edj38s5gs2q6kjs",402,"173.csv","","null","resources/images/fishbone.png","null","",NA,NA,NA,NA,""
"image-keyboard-response",428,471372,"0.0-3.139-0.139","edj38s5gs2q6kjs",402,"173.csv","","270.8999999985099","resources/trios/L2T1A2.jpg","38","restless",0.4,0.4,0.7,0.615222529313391,"false"
"image-keyboard-response",429,471783,"0.0-3.139-1.139","edj38s5gs2q6kjs",402,"173.csv","","null","resources/maskTrios/BT1B.jpg","null","",NA,NA,NA,NA,""
"image-keyboard-response",430,472988,"0.0-3.139-2.139","edj38s5gs2q6kjs",402,"173.csv","","null","resources/images/fishbone.png","null","",NA,NA,NA,NA,""
"image-keyboard-response",431,473251,"0.0-3.140-0.140","edj38s5gs2q6kjs",402,"173.csv","","261.70000000298023","resources/trios/L1T1A2.jpg","39","restless",0.4,0.4,0.7,0.0267094314148597,"true"
"image-keyboard-response",432,473664,"0.0-3.140-1.140","edj38s5gs2q6kjs",402,"173.csv","","null","resources/maskTrios/BBA2.jpg","null","",NA,NA,NA,NA,""
"image-keyboard-response",433,474868,"0.0-3.140-2.140","edj38s5gs2q6kjs",402,"173.csv","","null","resources/images/coin2.png","null","",NA,NA,NA,NA,""
"image-keyboard-response",434,475248,"0.0-3.141-0.141","edj38s5gs2q6kjs",402,"173.csv","","378.5","resources/trios/L1T1A2.jpg","39","restless",0.4,0.3,0.7,0.915951550538362,"false"
"image-keyboard-response",435,475651,"0.0-3.141-1.141","edj38s5gs2q6kjs",402,"173.csv","","null","resources/maskTrios/BBA2.jpg","null","",NA,NA,NA,NA,""
"image-keyboard-response",436,476864,"0.0-3.141-2.141","edj38s5gs2q6kjs",402,"173.csv","","null","resources/images/fishbone.png","null","",NA,NA,NA,NA,""
"image-keyboard-response",437,476937,"0.0-3.142-0.142","edj38s5gs2q6kjs",402,"173.csv","","71.5","resources/trios/L1T2A2.jpg","38","restless",0.4,0.3,0.7,0.266220166122519,"true"
"image-keyboard-response",438,477340,"0.0-3.142-1.142","edj38s5gs2q6kjs",402,"173.csv","","null","resources/maskTrios/BT2B.jpg","null","",NA,NA,NA,NA,""
"image-keyboard-response",439,478547,"0.0-3.142-2.142","edj38s5gs2q6kjs",402,"173.csv","","null","resources/images/coin2.png","null","",NA,NA,NA,NA,""
"image-keyboard-response",440,480772,"0.0-3.143-0.143","edj38s5gs2q6kjs",402,"173.csv","","2223.2999999970198","resources/trios/L1T2A3.jpg","38","restless",0.4,0.3,0.7,0.9291698560741,"false"
"image-keyboard-response",441,481184,"0.0-3.143-1.143","edj38s5gs2q6kjs",402,"173.csv","","null","resources/maskTrios/BT2B.jpg","null","",NA,NA,NA,NA,""
"image-keyboard-response",442,482388,"0.0-3.143-2.143","edj38s5gs2q6kjs",402,"173.csv","","null","resources/images/fishbone.png","null","",NA,NA,NA,NA,""
"image-keyboard-response",443,482719,"0.0-3.144-0.144","edj38s5gs2q6kjs",402,"173.csv","","329.1000000014901","resources/trios/L1T2A2.jpg","37","restless",0.4,0.3,0.7,0.330094761917923,"true"
"image-keyboard-response",444,483126,"0.0-3.144-1.144","edj38s5gs2q6kjs",402,"173.csv","","null","resources/maskTrios/L1BB.jpg","null","",NA,NA,NA,NA,""
"image-keyboard-response",445,484336,"0.0-3.144-2.144","edj38s5gs2q6kjs",402,"173.csv","","null","resources/images/coin2.png","null","",NA,NA,NA,NA,""
"image-keyboard-response",446,487457,"0.0-3.145-0.145","edj38s5gs2q6kjs",402,"173.csv","","3119.39999999851","resources/trios/L2T1A3.jpg","37","restless",0.4,0.3,0.7,0.296392778224177,"true"
"image-keyboard-response",447,487864,"0.0-3.145-1.145","edj38s5gs2q6kjs",402,"173.csv","","null","resources/maskTrios/L2BB.jpg","null","",NA,NA,NA,NA,""
"image-keyboard-response",448,489072,"0.0-3.145-2.145","edj38s5gs2q6kjs",402,"173.csv","","null","resources/images/coin2.png","null","",NA,NA,NA,NA,""
"image-keyboard-response",449,495125,"0.0-3.146-0.146","edj38s5gs2q6kjs",402,"173.csv","","6051","resources/trios/L1T2A3.jpg","37","restless",0.4,0.3,0.7,0.914703692635865,"false"
"image-keyboard-response",450,495532,"0.0-3.146-1.146","edj38s5gs2q6kjs",402,"173.csv","","null","resources/maskTrios/L1BB.jpg","null","",NA,NA,NA,NA,""
"image-keyboard-response",451,496740,"0.0-3.146-2.146","edj38s5gs2q6kjs",402,"173.csv","","null","resources/images/fishbone.png","null","",NA,NA,NA,NA,""
"image-keyboard-response",452,496919,"0.0-3.147-0.147","edj38s5gs2q6kjs",402,"173.csv","","176.89999999850988","resources/trios/L2T1A2.jpg","39","restless",0.4,0.3,0.6,0.499741011506283,"true"
"image-keyboard-response",453,497324,"0.0-3.147-1.147","edj38s5gs2q6kjs",402,"173.csv","","null","resources/maskTrios/BBA2.jpg","null","",NA,NA,NA,NA,""
"image-keyboard-response",454,498532,"0.0-3.147-2.147","edj38s5gs2q6kjs",402,"173.csv","","null","resources/images/coin2.png","null","",NA,NA,NA,NA,""
"image-keyboard-response",455,499093,"0.0-3.148-0.148","edj38s5gs2q6kjs",402,"173.csv","","559.4000000059605","resources/trios/L2T2A3.jpg","39","restless",0.4,0.3,0.6,0.727621779204995,"false"
"image-keyboard-response",456,499504,"0.0-3.148-1.148","edj38s5gs2q6kjs",402,"173.csv","","null","resources/maskTrios/BBA3.jpg","null","",NA,NA,NA,NA,""
"image-keyboard-response",457,500712,"0.0-3.148-2.148","edj38s5gs2q6kjs",402,"173.csv","","null","resources/images/fishbone.png","null","",NA,NA,NA,NA,""
"image-keyboard-response",458,501076,"0.0-3.149-0.149","edj38s5gs2q6kjs",402,"173.csv","","361.8999999985099","resources/trios/L2T2A2.jpg","38","restless",0.3,0.3,0.6,0.0616463481861114,"true"
"image-keyboard-response",459,501484,"0.0-3.149-1.149","edj38s5gs2q6kjs",402,"173.csv","","null","resources/maskTrios/BT2B.jpg","null","",NA,NA,NA,NA,""
"image-keyboard-response",460,502697,"0.0-3.149-2.149","edj38s5gs2q6kjs",402,"173.csv","","null","resources/images/coin2.png","null","",NA,NA,NA,NA,""
"image-keyboard-response",461,503256,"0.0-3.150-0.150","edj38s5gs2q6kjs",402,"173.csv","","558.1000000014901","resources/trios/L1T2A2.jpg","38","restless",0.3,0.3,0.6,0.314849313681931,"false"
"image-keyboard-response",462,503665,"0.0-3.150-1.150","edj38s5gs2q6kjs",402,"173.csv","","null","resources/maskTrios/BT2B.jpg","null","",NA,NA,NA,NA,""
"image-keyboard-response",463,504873,"0.0-3.150-2.150","edj38s5gs2q6kjs",402,"173.csv","","null","resources/images/fishbone.png","null","",NA,NA,NA,NA,""
"image-keyboard-response",464,505461,"0.0-3.151-0.151","edj38s5gs2q6kjs",402,"173.csv","","586.8999999985099","resources/trios/L1T1A2.jpg","37","restless",0.3,0.3,0.6,0.795813667061356,"false"
"image-keyboard-response",465,505873,"0.0-3.151-1.151","edj38s5gs2q6kjs",402,"173.csv","","null","resources/maskTrios/L1BB.jpg","null","",NA,NA,NA,NA,""
"image-keyboard-response",466,507081,"0.0-3.151-2.151","edj38s5gs2q6kjs",402,"173.csv","","null","resources/images/fishbone.png","null","",NA,NA,NA,NA,""
"image-keyboard-response",467,507558,"0.0-3.152-0.152","edj38s5gs2q6kjs",402,"173.csv","","475.6000000014901","resources/trios/L1T2A3.jpg","38","restless",0.3,0.3,0.6,0.854368576086576,"false"
"image-keyboard-response",468,507967,"0.0-3.152-1.152","edj38s5gs2q6kjs",402,"173.csv","","null","resources/maskTrios/BT2B.jpg","null","",NA,NA,NA,NA,""
"image-keyboard-response",469,509177,"0.0-3.152-2.152","edj38s5gs2q6kjs",402,"173.csv","","null","resources/images/fishbone.png","null","",NA,NA,NA,NA,""
"image-keyboard-response",470,509470,"0.0-3.153-0.153","edj38s5gs2q6kjs",402,"173.csv","","291.3999999985099","resources/trios/L1T1A3.jpg","39","restless",0.3,0.3,0.6,0.769398603079144,"false"
"image-keyboard-response",471,509877,"0.0-3.153-1.153","edj38s5gs2q6kjs",402,"173.csv","","null","resources/maskTrios/BBA3.jpg","null","",NA,NA,NA,NA,""
"image-keyboard-response",472,511089,"0.0-3.153-2.153","edj38s5gs2q6kjs",402,"173.csv","","null","resources/images/fishbone.png","null","",NA,NA,NA,NA,""
"image-keyboard-response",473,511381,"0.0-3.154-0.154","edj38s5gs2q6kjs",402,"173.csv","","290.5","resources/trios/L2T2A3.jpg","37","restless",0.3,0.4,0.6,0.202729510678375,"true"
"image-keyboard-response",474,511793,"0.0-3.154-1.154","edj38s5gs2q6kjs",402,"173.csv","","null","resources/maskTrios/L2BB.jpg","null","",NA,NA,NA,NA,""
"image-keyboard-response",475,512997,"0.0-3.154-2.154","edj38s5gs2q6kjs",402,"173.csv","","null","resources/images/coin2.png","null","",NA,NA,NA,NA,""
"image-keyboard-response",476,513343,"0.0-3.155-0.155","edj38s5gs2q6kjs",402,"173.csv","","344.6000000014901","resources/trios/L2T1A2.jpg","37","restless",0.2,0.4,0.6,0.929326563084573,"false"
"image-keyboard-response",477,513753,"0.0-3.155-1.155","edj38s5gs2q6kjs",402,"173.csv","","null","resources/maskTrios/L2BB.jpg","null","",NA,NA,NA,NA,""
"image-keyboard-response",478,514961,"0.0-3.155-2.155","edj38s5gs2q6kjs",402,"173.csv","","null","resources/images/fishbone.png","null","",NA,NA,NA,NA,""
"image-keyboard-response",479,515245,"0.0-3.156-0.156","edj38s5gs2q6kjs",402,"173.csv","","282.3999999985099","resources/trios/L2T1A3.jpg","38","restless",0.2,0.4,0.5,0.0188045684893599,"true"
"image-keyboard-response",480,515654,"0.0-3.156-1.156","edj38s5gs2q6kjs",402,"173.csv","","null","resources/maskTrios/BT1B.jpg","null","",NA,NA,NA,NA,""
"image-keyboard-response",481,516865,"0.0-3.156-2.156","edj38s5gs2q6kjs",402,"173.csv","","null","resources/images/coin2.png","null","",NA,NA,NA,NA,""
"image-keyboard-response",482,517191,"0.0-3.157-0.157","edj38s5gs2q6kjs",402,"173.csv","","324.5","resources/trios/L2T2A3.jpg","38","restless",0.3,0.4,0.5,0.295504067639187,"true"
"image-keyboard-response",483,517600,"0.0-3.157-1.157","edj38s5gs2q6kjs",402,"173.csv","","null","resources/maskTrios/BT2B.jpg","null","",NA,NA,NA,NA,""
"image-keyboard-response",484,518809,"0.0-3.157-2.157","edj38s5gs2q6kjs",402,"173.csv","","null","resources/images/coin2.png","null","",NA,NA,NA,NA,""
"image-keyboard-response",485,519144,"0.0-3.158-0.158","edj38s5gs2q6kjs",402,"173.csv","","333.29999999701977","resources/trios/L2T2A2.jpg","38","restless",0.4,0.5,0.5,0.0458990313943199,"true"
"image-keyboard-response",486,519550,"0.0-3.158-1.158","edj38s5gs2q6kjs",402,"173.csv","","null","resources/maskTrios/BT2B.jpg","null","",NA,NA,NA,NA,""
"image-keyboard-response",487,520757,"0.0-3.158-2.158","edj38s5gs2q6kjs",402,"173.csv","","null","resources/images/coin2.png","null","",NA,NA,NA,NA,""
"image-keyboard-response",488,521068,"0.0-3.159-0.159","edj38s5gs2q6kjs",402,"173.csv","","310","resources/trios/L1T2A2.jpg","38","restless",0.4,0.5,0.4,0.372079542652353,"true"
"image-keyboard-response",489,521481,"0.0-3.159-1.159","edj38s5gs2q6kjs",402,"173.csv","","null","resources/maskTrios/BT2B.jpg","null","",NA,NA,NA,NA,""
"image-keyboard-response",490,522689,"0.0-3.159-2.159","edj38s5gs2q6kjs",402,"173.csv","","null","resources/images/coin2.png","null","",NA,NA,NA,NA,""
"image-keyboard-response",491,523019,"0.0-3.160-0.160","edj38s5gs2q6kjs",402,"173.csv","","328.20000000298023","resources/trios/L1T1A3.jpg","38","restless",0.4,0.6,0.4,0.856227380941372,"false"
"image-keyboard-response",492,523433,"0.0-3.160-1.160","edj38s5gs2q6kjs",402,"173.csv","","null","resources/maskTrios/BT1B.jpg","null","",NA,NA,NA,NA,""
"image-keyboard-response",493,524640,"0.0-3.160-2.160","edj38s5gs2q6kjs",402,"173.csv","","null","resources/images/fishbone.png","null","",NA,NA,NA,NA,""
"image-keyboard-response",494,524927,"0.0-3.161-0.161","edj38s5gs2q6kjs",402,"173.csv","","285.69999999552965","resources/trios/L1T2A2.jpg","39","restless",0.4,0.6,0.4,0.0470710984934912,"true"
"image-keyboard-response",495,525334,"0.0-3.161-1.161","edj38s5gs2q6kjs",402,"173.csv","","null","resources/maskTrios/BBA2.jpg","null","",NA,NA,NA,NA,""
"image-keyboard-response",496,526545,"0.0-3.161-2.161","edj38s5gs2q6kjs",402,"173.csv","","null","resources/images/coin2.png","null","",NA,NA,NA,NA,""
"image-keyboard-response",497,526892,"0.0-3.162-0.162","edj38s5gs2q6kjs",402,"173.csv","","344.79999999701977","resources/trios/L2T2A2.jpg","39","restless",0.4,0.6,0.4,0.269444694018448,"true"
"image-keyboard-response",498,527305,"0.0-3.162-1.162","edj38s5gs2q6kjs",402,"173.csv","","null","resources/maskTrios/BBA2.jpg","null","",NA,NA,NA,NA,""
"image-keyboard-response",499,528513,"0.0-3.162-2.162","edj38s5gs2q6kjs",402,"173.csv","","null","resources/images/coin2.png","null","",NA,NA,NA,NA,""
"image-keyboard-response",500,528941,"0.0-3.163-0.163","edj38s5gs2q6kjs",402,"173.csv","","426.29999999701977","resources/trios/L1T2A3.jpg","39","restless",0.4,0.6,0.4,0.631808638474104,"false"
"image-keyboard-response",501,529353,"0.0-3.163-1.163","edj38s5gs2q6kjs",402,"173.csv","","null","resources/maskTrios/BBA3.jpg","null","",NA,NA,NA,NA,""
"image-keyboard-response",502,530561,"0.0-3.163-2.163","edj38s5gs2q6kjs",402,"173.csv","","null","resources/images/fishbone.png","null","",NA,NA,NA,NA,""
"image-keyboard-response",503,530909,"0.0-3.164-0.164","edj38s5gs2q6kjs",402,"173.csv","","346","resources/trios/L2T2A2.jpg","37","restless",0.5,0.6,0.5,0.568323196736441,"false"
"image-keyboard-response",504,531319,"0.0-3.164-1.164","edj38s5gs2q6kjs",402,"173.csv","","null","resources/maskTrios/L2BB.jpg","null","",NA,NA,NA,NA,""
"image-keyboard-response",505,532529,"0.0-3.164-2.164","edj38s5gs2q6kjs",402,"173.csv","","null","resources/images/fishbone.png","null","",NA,NA,NA,NA,""
"image-keyboard-response",506,534225,"0.0-3.165-0.165","edj38s5gs2q6kjs",402,"173.csv","","1693.8999999985099","resources/trios/L2T1A2.jpg","38","restless",0.6,0.6,0.5,0.0905439171602973,"true"
"image-keyboard-response",507,534630,"0.0-3.165-1.165","edj38s5gs2q6kjs",402,"173.csv","","null","resources/maskTrios/BT1B.jpg","null","",NA,NA,NA,NA,""
"image-keyboard-response",508,535838,"0.0-3.165-2.165","edj38s5gs2q6kjs",402,"173.csv","","null","resources/images/coin2.png","null","",NA,NA,NA,NA,""
"image-keyboard-response",509,538818,"0.0-3.166-0.166","edj38s5gs2q6kjs",402,"173.csv","","2978.3000000044703","resources/trios/L1T2A3.jpg","39","restless",0.6,0.6,0.5,0.19088413418002,"true"
"image-keyboard-response",510,539222,"0.0-3.166-1.166","edj38s5gs2q6kjs",402,"173.csv","","null","resources/maskTrios/BBA3.jpg","null","",NA,NA,NA,NA,""
"image-keyboard-response",511,540434,"0.0-3.166-2.166","edj38s5gs2q6kjs",402,"173.csv","","null","resources/images/coin2.png","null","",NA,NA,NA,NA,""
"image-keyboard-response",512,540836,"0.0-3.167-0.167","edj38s5gs2q6kjs",402,"173.csv","","401.29999999701977","resources/trios/L2T1A3.jpg","39","restless",0.6,0.6,0.5,0.179277393208153,"true"
"image-keyboard-response",513,541250,"0.0-3.167-1.167","edj38s5gs2q6kjs",402,"173.csv","","null","resources/maskTrios/BBA3.jpg","null","",NA,NA,NA,NA,""
"image-keyboard-response",514,542454,"0.0-3.167-2.167","edj38s5gs2q6kjs",402,"173.csv","","null","resources/images/coin2.png","null","",NA,NA,NA,NA,""
"image-keyboard-response",515,543220,"0.0-3.168-0.168","edj38s5gs2q6kjs",402,"173.csv","","764.7999999970198","resources/trios/L1T1A3.jpg","39","restless",0.6,0.6,0.5,0.819710092374811,"false"
"image-keyboard-response",516,543634,"0.0-3.168-1.168","edj38s5gs2q6kjs",402,"173.csv","","null","resources/maskTrios/BBA3.jpg","null","",NA,NA,NA,NA,""
"image-keyboard-response",517,544840,"0.0-3.168-2.168","edj38s5gs2q6kjs",402,"173.csv","","null","resources/images/fishbone.png","null","",NA,NA,NA,NA,""
"image-keyboard-response",518,546050,"0.0-3.169-0.169","edj38s5gs2q6kjs",402,"173.csv","","1208.2000000029802","resources/trios/L2T1A3.jpg","39","restless",0.6,0.6,0.5,0.305478615410706,"true"
"image-keyboard-response",519,546458,"0.0-3.169-1.169","edj38s5gs2q6kjs",402,"173.csv","","null","resources/maskTrios/BBA3.jpg","null","",NA,NA,NA,NA,""
"image-keyboard-response",520,547666,"0.0-3.169-2.169","edj38s5gs2q6kjs",402,"173.csv","","null","resources/images/coin2.png","null","",NA,NA,NA,NA,""
"image-keyboard-response",521,548779,"0.0-3.170-0.170","edj38s5gs2q6kjs",402,"173.csv","","1111.8999999985099","resources/trios/L2T2A3.jpg","37","restless",0.6,0.5,0.5,0.0928542364411404,"true"
"image-keyboard-response",522,549182,"0.0-3.170-1.170","edj38s5gs2q6kjs",402,"173.csv","","null","resources/maskTrios/L2BB.jpg","null","",NA,NA,NA,NA,""
"image-keyboard-response",523,550390,"0.0-3.170-2.170","edj38s5gs2q6kjs",402,"173.csv","","null","resources/images/coin2.png","null","",NA,NA,NA,NA,""
"image-keyboard-response",524,550716,"0.0-3.171-0.171","edj38s5gs2q6kjs",402,"173.csv","","324","resources/trios/L2T2A3.jpg","37","restless",0.6,0.5,0.5,0.725451008522655,"false"
"image-keyboard-response",525,551129,"0.0-3.171-1.171","edj38s5gs2q6kjs",402,"173.csv","","null","resources/maskTrios/L2BB.jpg","null","",NA,NA,NA,NA,""
"image-keyboard-response",526,552335,"0.0-3.171-2.171","edj38s5gs2q6kjs",402,"173.csv","","null","resources/images/fishbone.png","null","",NA,NA,NA,NA,""
"image-keyboard-response",527,552699,"0.0-3.172-0.172","edj38s5gs2q6kjs",402,"173.csv","","362.79999999701977","resources/trios/L2T2A3.jpg","39","restless",0.6,0.5,0.5,0.695676155835751,"false"
"image-keyboard-response",528,553103,"0.0-3.172-1.172","edj38s5gs2q6kjs",402,"173.csv","","null","resources/maskTrios/BBA3.jpg","null","",NA,NA,NA,NA,""
"image-keyboard-response",529,554313,"0.0-3.172-2.172","edj38s5gs2q6kjs",402,"173.csv","","null","resources/images/fishbone.png","null","",NA,NA,NA,NA,""
"image-keyboard-response",530,554671,"0.0-3.173-0.173","edj38s5gs2q6kjs",402,"173.csv","","356.70000000298023","resources/trios/L1T1A2.jpg","38","restless",0.6,0.5,0.5,0.618635340843464,"false"
"image-keyboard-response",531,555082,"0.0-3.173-1.173","edj38s5gs2q6kjs",402,"173.csv","","null","resources/maskTrios/BT1B.jpg","null","",NA,NA,NA,NA,""
"image-keyboard-response",532,556290,"0.0-3.173-2.173","edj38s5gs2q6kjs",402,"173.csv","","null","resources/images/fishbone.png","null","",NA,NA,NA,NA,""
"image-keyboard-response",533,556601,"0.0-3.174-0.174","edj38s5gs2q6kjs",402,"173.csv","","309.29999999701977","resources/trios/L1T2A2.jpg","37","restless",0.6,0.5,0.5,0.799827866965582,"false"
"image-keyboard-response",534,557010,"0.0-3.174-1.174","edj38s5gs2q6kjs",402,"173.csv","","null","resources/maskTrios/L1BB.jpg","null","",NA,NA,NA,NA,""
"image-keyboard-response",535,558214,"0.0-3.174-2.174","edj38s5gs2q6kjs",402,"173.csv","","null","resources/images/fishbone.png","null","",NA,NA,NA,NA,""
"image-keyboard-response",536,558538,"0.0-3.175-0.175","edj38s5gs2q6kjs",402,"173.csv","","322.6000000014901","resources/trios/L2T1A2.jpg","39","restless",0.7,0.6,0.5,0.5044934320644,"false"
"image-keyboard-response",537,558942,"0.0-3.175-1.175","edj38s5gs2q6kjs",402,"173.csv","","null","resources/maskTrios/BBA2.jpg","null","",NA,NA,NA,NA,""
"image-keyboard-response",538,560154,"0.0-3.175-2.175","edj38s5gs2q6kjs",402,"173.csv","","null","resources/images/fishbone.png","null","",NA,NA,NA,NA,""
"image-keyboard-response",539,560557,"0.0-3.176-0.176","edj38s5gs2q6kjs",402,"173.csv","","401.20000000298023","resources/trios/L1T2A3.jpg","38","restless",0.7,0.5,0.5,0.713401108309426,"false"
"image-keyboard-response",540,560970,"0.0-3.176-1.176","edj38s5gs2q6kjs",402,"173.csv","","null","resources/maskTrios/BT2B.jpg","null","",NA,NA,NA,NA,""
"image-keyboard-response",541,562175,"0.0-3.176-2.176","edj38s5gs2q6kjs",402,"173.csv","","null","resources/images/fishbone.png","null","",NA,NA,NA,NA,""
"image-keyboard-response",542,562425,"0.0-3.177-0.177","edj38s5gs2q6kjs",402,"173.csv","","249","resources/trios/L2T2A2.jpg","37","restless",0.7,0.6,0.5,0.789704414200733,"false"
"image-keyboard-response",543,562834,"0.0-3.177-1.177","edj38s5gs2q6kjs",402,"173.csv","","null","resources/maskTrios/L2BB.jpg","null","",NA,NA,NA,NA,""
"image-keyboard-response",544,564041,"0.0-3.177-2.177","edj38s5gs2q6kjs",402,"173.csv","","null","resources/images/fishbone.png","null","",NA,NA,NA,NA,""
"image-keyboard-response",545,564605,"0.0-3.178-0.178","edj38s5gs2q6kjs",402,"173.csv","","562.4000000059605","resources/trios/L2T2A2.jpg","37","restless",0.7,0.6,0.5,0.50664661831231,"true"
"image-keyboard-response",546,565018,"0.0-3.178-1.178","edj38s5gs2q6kjs",402,"173.csv","","null","resources/maskTrios/L2BB.jpg","null","",NA,NA,NA,NA,""
"image-keyboard-response",547,566224,"0.0-3.178-2.178","edj38s5gs2q6kjs",402,"173.csv","","null","resources/images/coin2.png","null","",NA,NA,NA,NA,""
"image-keyboard-response",548,566546,"0.0-3.179-0.179","edj38s5gs2q6kjs",402,"173.csv","","321.1000000014901","resources/trios/L1T2A3.jpg","37","restless",0.7,0.6,0.5,0.374803644889927,"true"
"image-keyboard-response",549,566951,"0.0-3.179-1.179","edj38s5gs2q6kjs",402,"173.csv","","null","resources/maskTrios/L1BB.jpg","null","",NA,NA,NA,NA,""
"image-keyboard-response",550,568163,"0.0-3.179-2.179","edj38s5gs2q6kjs",402,"173.csv","","null","resources/images/coin2.png","null","",NA,NA,NA,NA,""
"image-keyboard-response",551,568555,"0.0-3.180-0.180","edj38s5gs2q6kjs",402,"173.csv","","391.20000000298023","resources/trios/L1T1A2.jpg","37","restless",0.7,0.6,0.5,0.0484760467412328,"true"
"image-keyboard-response",552,568959,"0.0-3.180-1.180","edj38s5gs2q6kjs",402,"173.csv","","null","resources/maskTrios/L1BB.jpg","null","",NA,NA,NA,NA,""
"image-keyboard-response",553,570169,"0.0-3.180-2.180","edj38s5gs2q6kjs",402,"173.csv","","null","resources/images/coin2.png","null","",NA,NA,NA,NA,""
"image-keyboard-response",554,570481,"0.0-3.181-0.181","edj38s5gs2q6kjs",402,"173.csv","","310.29999999701977","resources/trios/L2T2A2.jpg","37","restless",0.7,0.6,0.5,0.765673693742023,"false"
"image-keyboard-response",555,570891,"0.0-3.181-1.181","edj38s5gs2q6kjs",402,"173.csv","","null","resources/maskTrios/L2BB.jpg","null","",NA,NA,NA,NA,""
"image-keyboard-response",556,572099,"0.0-3.181-2.181","edj38s5gs2q6kjs",402,"173.csv","","null","resources/images/fishbone.png","null","",NA,NA,NA,NA,""
"image-keyboard-response",557,572907,"0.0-3.182-0.182","edj38s5gs2q6kjs",402,"173.csv","","806.6000000014901","resources/trios/L2T2A2.jpg","38","restless",0.7,0.5,0.5,0.0161185836364748,"true"
"image-keyboard-response",558,573313,"0.0-3.182-1.182","edj38s5gs2q6kjs",402,"173.csv","","null","resources/maskTrios/BT2B.jpg","null","",NA,NA,NA,NA,""
"image-keyboard-response",559,574519,"0.0-3.182-2.182","edj38s5gs2q6kjs",402,"173.csv","","null","resources/images/coin2.png","null","",NA,NA,NA,NA,""
"image-keyboard-response",560,574841,"0.0-3.183-0.183","edj38s5gs2q6kjs",402,"173.csv","","321","resources/trios/L2T2A2.jpg","38","restless",0.7,0.5,0.5,0.363887781058979,"true"
"image-keyboard-response",561,575247,"0.0-3.183-1.183","edj38s5gs2q6kjs",402,"173.csv","","null","resources/maskTrios/BT2B.jpg","null","",NA,NA,NA,NA,""
"image-keyboard-response",562,576459,"0.0-3.183-2.183","edj38s5gs2q6kjs",402,"173.csv","","null","resources/images/coin2.png","null","",NA,NA,NA,NA,""
"image-keyboard-response",563,576813,"0.0-3.184-0.184","edj38s5gs2q6kjs",402,"173.csv","","352.6000000014901","resources/trios/L1T1A3.jpg","38","restless",0.7,0.5,0.5,0.930909268020963,"false"
"image-keyboard-response",564,577226,"0.0-3.184-1.184","edj38s5gs2q6kjs",402,"173.csv","","null","resources/maskTrios/BT1B.jpg","null","",NA,NA,NA,NA,""
"image-keyboard-response",565,578435,"0.0-3.184-2.184","edj38s5gs2q6kjs",402,"173.csv","","null","resources/images/fishbone.png","null","",NA,NA,NA,NA,""
"image-keyboard-response",566,578697,"0.0-3.185-0.185","edj38s5gs2q6kjs",402,"173.csv","","260.8999999985099","resources/trios/L2T2A3.jpg","39","restless",0.7,0.5,0.5,0.363191511520352,"true"
"image-keyboard-response",567,579103,"0.0-3.185-1.185","edj38s5gs2q6kjs",402,"173.csv","","null","resources/maskTrios/BBA3.jpg","null","",NA,NA,NA,NA,""
"image-keyboard-response",568,580314,"0.0-3.185-2.185","edj38s5gs2q6kjs",402,"173.csv","","null","resources/images/coin2.png","null","",NA,NA,NA,NA,""
"image-keyboard-response",569,580579,"0.0-3.186-0.186","edj38s5gs2q6kjs",402,"173.csv","","263.8999999985099","resources/trios/L1T2A3.jpg","39","restless",0.7,0.5,0.4,0.661341534293355,"false"
"image-keyboard-response",570,580987,"0.0-3.186-1.186","edj38s5gs2q6kjs",402,"173.csv","","null","resources/maskTrios/BBA3.jpg","null","",NA,NA,NA,NA,""
"image-keyboard-response",571,582192,"0.0-3.186-2.186","edj38s5gs2q6kjs",402,"173.csv","","null","resources/images/fishbone.png","null","",NA,NA,NA,NA,""
"image-keyboard-response",572,582649,"0.0-3.187-0.187","edj38s5gs2q6kjs",402,"173.csv","","455.8999999985099","resources/trios/L1T1A3.jpg","37","restless",0.7,0.4,0.5,0.84167660881146,"false"
"image-keyboard-response",573,583054,"0.0-3.187-1.187","edj38s5gs2q6kjs",402,"173.csv","","null","resources/maskTrios/L1BB.jpg","null","",NA,NA,NA,NA,""
"image-keyboard-response",574,584267,"0.0-3.187-2.187","edj38s5gs2q6kjs",402,"173.csv","","null","resources/images/fishbone.png","null","",NA,NA,NA,NA,""
"image-keyboard-response",575,584721,"0.0-3.188-0.188","edj38s5gs2q6kjs",402,"173.csv","","452.5","resources/trios/L1T2A3.jpg","39","restless",0.7,0.4,0.5,0.16767262537561,"true"
"image-keyboard-response",576,585126,"0.0-3.188-1.188","edj38s5gs2q6kjs",402,"173.csv","","null","resources/maskTrios/BBA3.jpg","null","",NA,NA,NA,NA,""
"image-keyboard-response",577,586339,"0.0-3.188-2.188","edj38s5gs2q6kjs",402,"173.csv","","null","resources/images/coin2.png","null","",NA,NA,NA,NA,""
"image-keyboard-response",578,586716,"0.0-3.189-0.189","edj38s5gs2q6kjs",402,"173.csv","","375.79999999701977","resources/trios/L2T2A3.jpg","39","restless",0.7,0.4,0.5,0.135154677277963,"true"
"image-keyboard-response",579,587122,"0.0-3.189-1.189","edj38s5gs2q6kjs",402,"173.csv","","null","resources/maskTrios/BBA3.jpg","null","",NA,NA,NA,NA,""
"image-keyboard-response",580,588331,"0.0-3.189-2.189","edj38s5gs2q6kjs",402,"173.csv","","null","resources/images/coin2.png","null","",NA,NA,NA,NA,""
"image-keyboard-response",581,588580,"0.0-3.190-0.190","edj38s5gs2q6kjs",402,"173.csv","","247.60000000149012","resources/trios/L2T1A3.jpg","39","restless",0.7,0.4,0.5,0.0035718565631524,"true"
"image-keyboard-response",582,588983,"0.0-3.190-1.190","edj38s5gs2q6kjs",402,"173.csv","","null","resources/maskTrios/BBA3.jpg","null","",NA,NA,NA,NA,""
"image-keyboard-response",583,590195,"0.0-3.190-2.190","edj38s5gs2q6kjs",402,"173.csv","","null","resources/images/coin2.png","null","",NA,NA,NA,NA,""
"image-keyboard-response",584,590488,"0.0-3.191-0.191","edj38s5gs2q6kjs",402,"173.csv","","291.59999999403954","resources/trios/L1T2A2.jpg","39","restless",0.7,0.4,0.5,0.381459276953276,"true"
"image-keyboard-response",585,590899,"0.0-3.191-1.191","edj38s5gs2q6kjs",402,"173.csv","","null","resources/maskTrios/BBA2.jpg","null","",NA,NA,NA,NA,""
"image-keyboard-response",586,592102,"0.0-3.191-2.191","edj38s5gs2q6kjs",402,"173.csv","","null","resources/images/coin2.png","null","",NA,NA,NA,NA,""
"image-keyboard-response",587,592426,"0.0-3.192-0.192","edj38s5gs2q6kjs",402,"173.csv","","322.29999999701977","resources/trios/L1T1A3.jpg","39","restless",0.6,0.4,0.5,0.707252682275667,"false"
"image-keyboard-response",588,592831,"0.0-3.192-1.192","edj38s5gs2q6kjs",402,"173.csv","","null","resources/maskTrios/BBA3.jpg","null","",NA,NA,NA,NA,""
"image-keyboard-response",589,594039,"0.0-3.192-2.192","edj38s5gs2q6kjs",402,"173.csv","","null","resources/images/fishbone.png","null","",NA,NA,NA,NA,""
"image-keyboard-response",590,594317,"0.0-3.193-0.193","edj38s5gs2q6kjs",402,"173.csv","","276.3999999985099","resources/trios/L2T1A2.jpg","38","restless",0.6,0.4,0.5,0.993561230508807,"false"
"image-keyboard-response",591,594727,"0.0-3.193-1.193","edj38s5gs2q6kjs",402,"173.csv","","null","resources/maskTrios/BT1B.jpg","null","",NA,NA,NA,NA,""
"image-keyboard-response",592,595939,"0.0-3.193-2.193","edj38s5gs2q6kjs",402,"173.csv","","null","resources/images/fishbone.png","null","",NA,NA,NA,NA,""
"image-keyboard-response",593,596244,"0.0-3.194-0.194","edj38s5gs2q6kjs",402,"173.csv","","303.5","resources/trios/L2T2A2.jpg","37","restless",0.6,0.4,0.6,0.77728957073422,"false"
"image-keyboard-response",594,596647,"0.0-3.194-1.194","edj38s5gs2q6kjs",402,"173.csv","","null","resources/maskTrios/L2BB.jpg","null","",NA,NA,NA,NA,""
"image-keyboard-response",595,597859,"0.0-3.194-2.194","edj38s5gs2q6kjs",402,"173.csv","","null","resources/images/fishbone.png","null","",NA,NA,NA,NA,""
"image-keyboard-response",596,598150,"0.0-3.195-0.195","edj38s5gs2q6kjs",402,"173.csv","","289","resources/trios/L2T1A2.jpg","38","restless",0.6,0.5,0.6,0.83579538958589,"false"
"image-keyboard-response",597,598563,"0.0-3.195-1.195","edj38s5gs2q6kjs",402,"173.csv","","null","resources/maskTrios/BT1B.jpg","null","",NA,NA,NA,NA,""
"image-keyboard-response",598,599767,"0.0-3.195-2.195","edj38s5gs2q6kjs",402,"173.csv","","null","resources/images/fishbone.png","null","",NA,NA,NA,NA,""
"image-keyboard-response",599,600119,"0.0-3.196-0.196","edj38s5gs2q6kjs",402,"173.csv","","350.6000000014901","resources/trios/L2T1A3.jpg","39","restless",0.6,0.5,0.6,0.723035659259285,"false"
"image-keyboard-response",600,600528,"0.0-3.196-1.196","edj38s5gs2q6kjs",402,"173.csv","","null","resources/maskTrios/BBA3.jpg","null","",NA,NA,NA,NA,""
"image-keyboard-response",601,601740,"0.0-3.196-2.196","edj38s5gs2q6kjs",402,"173.csv","","null","resources/images/fishbone.png","null","",NA,NA,NA,NA,""
"image-keyboard-response",602,602021,"0.0-3.197-0.197","edj38s5gs2q6kjs",402,"173.csv","","280.1000000014901","resources/trios/L2T2A3.jpg","37","restless",0.6,0.5,0.6,0.278845480323265,"true"
"image-keyboard-response",603,602436,"0.0-3.197-1.197","edj38s5gs2q6kjs",402,"173.csv","","null","resources/maskTrios/L2BB.jpg","null","",NA,NA,NA,NA,""
"image-keyboard-response",604,603643,"0.0-3.197-2.197","edj38s5gs2q6kjs",402,"173.csv","","null","resources/images/coin2.png","null","",NA,NA,NA,NA,""
"image-keyboard-response",605,603895,"0.0-3.198-0.198","edj38s5gs2q6kjs",402,"173.csv","","251","resources/trios/L2T1A3.jpg","37","restless",0.6,0.5,0.6,0.313992959988971,"true"
"image-keyboard-response",606,604303,"0.0-3.198-1.198","edj38s5gs2q6kjs",402,"173.csv","","null","resources/maskTrios/L2BB.jpg","null","",NA,NA,NA,NA,""
