"trial_type","trial_index","time_elapsed","internal_node_id","subject","participantCode","walkNumber","success","rt","stimulus","key_press","test_part","leftProb","midProb","rightProb","generatedNum","correct"
"pavlovia",0,1014,"0.0-0.0","wg1x2azrzgy7nov",134,"166.csv","","","","","",NA,NA,NA,NA,""
"fullscreen",1,5367,"0.0-1.0","wg1x2azrzgy7nov",134,"166.csv","true","","","","",NA,NA,NA,NA,""
"html-keyboard-response",2,66717,"0.0-2.0-0.0","wg1x2azrzgy7nov",134,"166.csv","","61347.5","<p><font size='6'>Arrrgh!</p></font><p>Can you be the best pirate? Try to find lots of gold! But beware, some islands have more gold than others, and over time, the island with the most gold may change. Can YOU figure it out? </p><font size='6'>GOOD LUCK, CAPTAIN!!!</font><p>Press any key to begin</p>","32","",NA,NA,NA,NA,""
"image-keyboard-response",3,69719,"0.0-2.0-1.0","wg1x2azrzgy7nov",134,"166.csv","","null","resources/image_sets/111.png","null","",NA,NA,NA,NA,""
"image-keyboard-response",4,72655,"0.0-2.0-2.0","wg1x2azrzgy7nov",134,"166.csv","","2934.2000000029802","resources/image_sets/left_highlight.png","37","",NA,NA,NA,NA,""
"image-keyboard-response",5,74244,"0.0-2.0-3.0","wg1x2azrzgy7nov",134,"166.csv","","1588.1000000014901","resources/image_sets/mid_highlight.png","38","",NA,NA,NA,NA,""
"image-keyboard-response",6,74778,"0.0-2.0-4.0","wg1x2azrzgy7nov",134,"166.csv","","532.6000000014901","resources/image_sets/right_highlight.png","39","",NA,NA,NA,NA,""
"image-keyboard-response",7,77740,"0.0-2.0-5.0","wg1x2azrzgy7nov",134,"166.csv","","2961.4000000059605","resources/image_sets/111.png","13","",NA,NA,NA,NA,""
"image-keyboard-response",8,81015,"0.0-2.0-6.0","wg1x2azrzgy7nov",134,"166.csv","","3273.0999999940395","resources/images/coin2.png","13","",NA,NA,NA,NA,""
"image-keyboard-response",9,82897,"0.0-2.0-7.0","wg1x2azrzgy7nov",134,"166.csv","","1881.1000000014901","resources/images/fishbone.png","13","",NA,NA,NA,NA,""
"html-keyboard-response",10,124154,"0.0-2.0-8.0","wg1x2azrzgy7nov",134,"166.csv","","41255.19999999553","<p>Your first journey will be a long one, but you will get a well deserved break at the end</p><p>After the break you will have four more journeys, but each will be much shorter than the first, and you will have breaks in between each</p><p>Press Enter to begin</p>","13","",NA,NA,NA,NA,""
"image-keyboard-response",11,126818,"0.0-3.0-0.0","wg1x2azrzgy7nov",134,"166.csv","","2662.7000000029802","resources/trios/L2T4A2.jpg","37","restless",0.3,0.9,0.7,0.881998281056511,"false"
"image-keyboard-response",12,127226,"0.0-3.0-1.0","wg1x2azrzgy7nov",134,"166.csv","","null","resources/maskTrios/L2BB.jpg","null","",NA,NA,NA,NA,""
"image-keyboard-response",13,128432,"0.0-3.0-2.0","wg1x2azrzgy7nov",134,"166.csv","","null","resources/images/fishbone.png","null","",NA,NA,NA,NA,""
"image-keyboard-response",14,131193,"0.0-3.1-0.1","wg1x2azrzgy7nov",134,"166.csv","","2758.89999999851","resources/trios/L1T2A3.jpg","39","restless",0.3,0.9,0.7,0.888491153874996,"false"
"image-keyboard-response",15,131599,"0.0-3.1-1.1","wg1x2azrzgy7nov",134,"166.csv","","null","resources/maskTrios/BBA3.jpg","null","",NA,NA,NA,NA,""
"image-keyboard-response",16,132802,"0.0-3.1-2.1","wg1x2azrzgy7nov",134,"166.csv","","null","resources/images/fishbone.png","null","",NA,NA,NA,NA,""
"image-keyboard-response",17,133438,"0.0-3.2-0.2","wg1x2azrzgy7nov",134,"166.csv","","634.7000000029802","resources/trios/L2T2A2.jpg","38","restless",0.3,0.9,0.7,0.921055037103554,"false"
"image-keyboard-response",18,133845,"0.0-3.2-1.2","wg1x2azrzgy7nov",134,"166.csv","","null","resources/maskTrios/BT2B.jpg","null","",NA,NA,NA,NA,""
"image-keyboard-response",19,135051,"0.0-3.2-2.2","wg1x2azrzgy7nov",134,"166.csv","","null","resources/images/fishbone.png","null","",NA,NA,NA,NA,""
"image-keyboard-response",20,135802,"0.0-3.3-0.3","wg1x2azrzgy7nov",134,"166.csv","","749.3999999985099","resources/trios/L1T4A3.jpg","39","restless",0.3,0.9,0.7,0.129379579642696,"true"
"image-keyboard-response",21,136208,"0.0-3.3-1.3","wg1x2azrzgy7nov",134,"166.csv","","null","resources/maskTrios/BBA3.jpg","null","",NA,NA,NA,NA,""
"image-keyboard-response",22,137415,"0.0-3.3-2.3","wg1x2azrzgy7nov",134,"166.csv","","null","resources/images/coin2.png","null","",NA,NA,NA,NA,""
"image-keyboard-response",23,138744,"0.0-3.4-0.4","wg1x2azrzgy7nov",134,"166.csv","","1327.3000000044703","resources/trios/L1T4A2.jpg","38","restless",0.2,0.9,0.7,0.72621511969613,"true"
"image-keyboard-response",24,139148,"0.0-3.4-1.4","wg1x2azrzgy7nov",134,"166.csv","","null","resources/maskTrios/BT4B.jpg","null","",NA,NA,NA,NA,""
"image-keyboard-response",25,140355,"0.0-3.4-2.4","wg1x2azrzgy7nov",134,"166.csv","","null","resources/images/coin2.png","null","",NA,NA,NA,NA,""
"image-keyboard-response",26,142010,"0.0-3.5-0.5","wg1x2azrzgy7nov",134,"166.csv","","1654.3000000044703","resources/trios/L2T4A2.jpg","37","restless",0.2,0.9,0.7,0.746692763896971,"false"
"image-keyboard-response",27,142414,"0.0-3.5-1.5","wg1x2azrzgy7nov",134,"166.csv","","null","resources/maskTrios/L2BB.jpg","null","",NA,NA,NA,NA,""
"image-keyboard-response",28,143620,"0.0-3.5-2.5","wg1x2azrzgy7nov",134,"166.csv","","null","resources/images/fishbone.png","null","",NA,NA,NA,NA,""
"image-keyboard-response",29,144338,"0.0-3.6-0.6","wg1x2azrzgy7nov",134,"166.csv","","716.1000000014901","resources/trios/L2T4A3.jpg","38","restless",0.2,0.9,0.7,0.100954945060922,"true"
"image-keyboard-response",30,144744,"0.0-3.6-1.6","wg1x2azrzgy7nov",134,"166.csv","","null","resources/maskTrios/BT4B.jpg","null","",NA,NA,NA,NA,""
"image-keyboard-response",31,145951,"0.0-3.6-2.6","wg1x2azrzgy7nov",134,"166.csv","","null","resources/images/coin2.png","null","",NA,NA,NA,NA,""
"image-keyboard-response",32,147302,"0.0-3.7-0.7","wg1x2azrzgy7nov",134,"166.csv","","1349.6000000014901","resources/trios/L1T2A3.jpg","38","restless",0.2,0.9,0.7,0.0613642967148949,"true"
"image-keyboard-response",33,147708,"0.0-3.7-1.7","wg1x2azrzgy7nov",134,"166.csv","","null","resources/maskTrios/BT2B.jpg","null","",NA,NA,NA,NA,""
"image-keyboard-response",34,148914,"0.0-3.7-2.7","wg1x2azrzgy7nov",134,"166.csv","","null","resources/images/coin2.png","null","",NA,NA,NA,NA,""
"image-keyboard-response",35,149717,"0.0-3.8-0.8","wg1x2azrzgy7nov",134,"166.csv","","801.6999999955297","resources/trios/L2T4A3.jpg","38","restless",0.2,0.9,0.7,0.810147892095539,"true"
"image-keyboard-response",36,150124,"0.0-3.8-1.8","wg1x2azrzgy7nov",134,"166.csv","","null","resources/maskTrios/BT4B.jpg","null","",NA,NA,NA,NA,""
"image-keyboard-response",37,151326,"0.0-3.8-2.8","wg1x2azrzgy7nov",134,"166.csv","","null","resources/images/coin2.png","null","",NA,NA,NA,NA,""
"image-keyboard-response",38,152006,"0.0-3.9-0.9","wg1x2azrzgy7nov",134,"166.csv","","678.3999999985099","resources/trios/L1T4A3.jpg","38","restless",0.2,0.9,0.7,0.364411573140946,"true"
"image-keyboard-response",39,152408,"0.0-3.9-1.9","wg1x2azrzgy7nov",134,"166.csv","","null","resources/maskTrios/BT4B.jpg","null","",NA,NA,NA,NA,""
"image-keyboard-response",40,153614,"0.0-3.9-2.9","wg1x2azrzgy7nov",134,"166.csv","","null","resources/images/coin2.png","null","",NA,NA,NA,NA,""
"image-keyboard-response",41,154290,"0.0-3.10-0.10","wg1x2azrzgy7nov",134,"166.csv","","674.5","resources/trios/L1T4A2.jpg","38","restless",0.2,0.9,0.7,0.21037364898426,"true"
"image-keyboard-response",42,154697,"0.0-3.10-1.10","wg1x2azrzgy7nov",134,"166.csv","","null","resources/maskTrios/BT4B.jpg","null","",NA,NA,NA,NA,""
"image-keyboard-response",43,155903,"0.0-3.10-2.10","wg1x2azrzgy7nov",134,"166.csv","","null","resources/images/coin2.png","null","",NA,NA,NA,NA,""
"image-keyboard-response",44,156346,"0.0-3.11-0.11","wg1x2azrzgy7nov",134,"166.csv","","442.1000000014901","resources/trios/L1T2A2.jpg","38","restless",0.2,0.9,0.8,0.864946221645513,"true"
"image-keyboard-response",45,156753,"0.0-3.11-1.11","wg1x2azrzgy7nov",134,"166.csv","","null","resources/maskTrios/BT2B.jpg","null","",NA,NA,NA,NA,""
"image-keyboard-response",46,157957,"0.0-3.11-2.11","wg1x2azrzgy7nov",134,"166.csv","","null","resources/images/coin2.png","null","",NA,NA,NA,NA,""
"image-keyboard-response",47,158383,"0.0-3.12-0.12","wg1x2azrzgy7nov",134,"166.csv","","424.8999999985099","resources/trios/L1T4A3.jpg","38","restless",0.2,0.9,0.8,0.693956390420909,"true"
"image-keyboard-response",48,158788,"0.0-3.12-1.12","wg1x2azrzgy7nov",134,"166.csv","","null","resources/maskTrios/BT4B.jpg","null","",NA,NA,NA,NA,""
"image-keyboard-response",49,159994,"0.0-3.12-2.12","wg1x2azrzgy7nov",134,"166.csv","","null","resources/images/coin2.png","null","",NA,NA,NA,NA,""
"image-keyboard-response",50,160492,"0.0-3.13-0.13","wg1x2azrzgy7nov",134,"166.csv","","496.69999999552965","resources/trios/L2T4A3.jpg","38","restless",0.2,0.9,0.8,0.25643410123481,"true"
"image-keyboard-response",51,160899,"0.0-3.13-1.13","wg1x2azrzgy7nov",134,"166.csv","","null","resources/maskTrios/BT4B.jpg","null","",NA,NA,NA,NA,""
"image-keyboard-response",52,162101,"0.0-3.13-2.13","wg1x2azrzgy7nov",134,"166.csv","","null","resources/images/coin2.png","null","",NA,NA,NA,NA,""
"image-keyboard-response",53,162658,"0.0-3.14-0.14","wg1x2azrzgy7nov",134,"166.csv","","555.6000000014901","resources/trios/L2T4A3.jpg","38","restless",0.2,0.9,0.8,0.293968895137548,"true"
"image-keyboard-response",54,163065,"0.0-3.14-1.14","wg1x2azrzgy7nov",134,"166.csv","","null","resources/maskTrios/BT4B.jpg","null","",NA,NA,NA,NA,""
"image-keyboard-response",55,164271,"0.0-3.14-2.14","wg1x2azrzgy7nov",134,"166.csv","","null","resources/images/coin2.png","null","",NA,NA,NA,NA,""
"image-keyboard-response",56,164708,"0.0-3.15-0.15","wg1x2azrzgy7nov",134,"166.csv","","435.5","resources/trios/L1T2A3.jpg","38","restless",0.2,0.9,0.8,0.295949827258299,"true"
"image-keyboard-response",57,165122,"0.0-3.15-1.15","wg1x2azrzgy7nov",134,"166.csv","","null","resources/maskTrios/BT2B.jpg","null","",NA,NA,NA,NA,""
"image-keyboard-response",58,166328,"0.0-3.15-2.15","wg1x2azrzgy7nov",134,"166.csv","","null","resources/images/coin2.png","null","",NA,NA,NA,NA,""
"image-keyboard-response",59,166794,"0.0-3.16-0.16","wg1x2azrzgy7nov",134,"166.csv","","465","resources/trios/L2T2A3.jpg","38","restless",0.2,0.9,0.8,0.72870545442717,"true"
"image-keyboard-response",60,167201,"0.0-3.16-1.16","wg1x2azrzgy7nov",134,"166.csv","","null","resources/maskTrios/BT2B.jpg","null","",NA,NA,NA,NA,""
"image-keyboard-response",61,168405,"0.0-3.16-2.16","wg1x2azrzgy7nov",134,"166.csv","","null","resources/images/coin2.png","null","",NA,NA,NA,NA,""
"image-keyboard-response",62,168894,"0.0-3.17-0.17","wg1x2azrzgy7nov",134,"166.csv","","488.70000000298023","resources/trios/L2T4A2.jpg","38","restless",0.2,0.9,0.8,0.117902555822892,"true"
"image-keyboard-response",63,169296,"0.0-3.17-1.17","wg1x2azrzgy7nov",134,"166.csv","","null","resources/maskTrios/BT4B.jpg","null","",NA,NA,NA,NA,""
"image-keyboard-response",64,170502,"0.0-3.17-2.17","wg1x2azrzgy7nov",134,"166.csv","","null","resources/images/coin2.png","null","",NA,NA,NA,NA,""
"image-keyboard-response",65,170768,"0.0-3.18-0.18","wg1x2azrzgy7nov",134,"166.csv","","265.20000000298023","resources/trios/L2T4A2.jpg","38","restless",0.3,0.8,0.8,0.488146852198188,"true"
"image-keyboard-response",66,171172,"0.0-3.18-1.18","wg1x2azrzgy7nov",134,"166.csv","","null","resources/maskTrios/BT4B.jpg","null","",NA,NA,NA,NA,""
"image-keyboard-response",67,172374,"0.0-3.18-2.18","wg1x2azrzgy7nov",134,"166.csv","","null","resources/images/coin2.png","null","",NA,NA,NA,NA,""
"image-keyboard-response",68,173025,"0.0-3.19-0.19","wg1x2azrzgy7nov",134,"166.csv","","650.2000000029802","resources/trios/L2T4A2.jpg","38","restless",0.3,0.8,0.8,0.441453097052951,"true"
"image-keyboard-response",69,173427,"0.0-3.19-1.19","wg1x2azrzgy7nov",134,"166.csv","","null","resources/maskTrios/BT4B.jpg","null","",NA,NA,NA,NA,""
"image-keyboard-response",70,174631,"0.0-3.19-2.19","wg1x2azrzgy7nov",134,"166.csv","","null","resources/images/coin2.png","null","",NA,NA,NA,NA,""
"image-keyboard-response",71,175434,"0.0-3.20-0.20","wg1x2azrzgy7nov",134,"166.csv","","801.7000000029802","resources/trios/L2T2A3.jpg","38","restless",0.3,0.8,0.8,0.283215801220596,"true"
"image-keyboard-response",72,175836,"0.0-3.20-1.20","wg1x2azrzgy7nov",134,"166.csv","","null","resources/maskTrios/BT2B.jpg","null","",NA,NA,NA,NA,""
"image-keyboard-response",73,177042,"0.0-3.20-2.20","wg1x2azrzgy7nov",134,"166.csv","","null","resources/images/coin2.png","null","",NA,NA,NA,NA,""
"image-keyboard-response",74,177466,"0.0-3.21-0.21","wg1x2azrzgy7nov",134,"166.csv","","422.29999999701977","resources/trios/L1T4A2.jpg","38","restless",0.3,0.8,0.8,0.517597154755108,"true"
"image-keyboard-response",75,177872,"0.0-3.21-1.21","wg1x2azrzgy7nov",134,"166.csv","","null","resources/maskTrios/BT4B.jpg","null","",NA,NA,NA,NA,""
"image-keyboard-response",76,179077,"0.0-3.21-2.21","wg1x2azrzgy7nov",134,"166.csv","","null","resources/images/coin2.png","null","",NA,NA,NA,NA,""
"image-keyboard-response",77,179560,"0.0-3.22-0.22","wg1x2azrzgy7nov",134,"166.csv","","481.6000000014901","resources/trios/L2T4A3.jpg","38","restless",0.3,0.7,0.9,0.769273228292115,"false"
"image-keyboard-response",78,179966,"0.0-3.22-1.22","wg1x2azrzgy7nov",134,"166.csv","","null","resources/maskTrios/BT4B.jpg","null","",NA,NA,NA,NA,""
"image-keyboard-response",79,181169,"0.0-3.22-2.22","wg1x2azrzgy7nov",134,"166.csv","","null","resources/images/fishbone.png","null","",NA,NA,NA,NA,""
"image-keyboard-response",80,181670,"0.0-3.23-0.23","wg1x2azrzgy7nov",134,"166.csv","","498.70000000298023","resources/trios/L1T4A3.jpg","38","restless",0.3,0.7,0.9,0.591113458912812,"true"
"image-keyboard-response",81,182076,"0.0-3.23-1.23","wg1x2azrzgy7nov",134,"166.csv","","null","resources/maskTrios/BT4B.jpg","null","",NA,NA,NA,NA,""
"image-keyboard-response",82,183282,"0.0-3.23-2.23","wg1x2azrzgy7nov",134,"166.csv","","null","resources/images/coin2.png","null","",NA,NA,NA,NA,""
"image-keyboard-response",83,183865,"0.0-3.24-0.24","wg1x2azrzgy7nov",134,"166.csv","","581.6000000014901","resources/trios/L2T2A3.jpg","38","restless",0.3,0.7,0.9,0.540799916424334,"true"
"image-keyboard-response",84,184272,"0.0-3.24-1.24","wg1x2azrzgy7nov",134,"166.csv","","null","resources/maskTrios/BT2B.jpg","null","",NA,NA,NA,NA,""
"image-keyboard-response",85,185473,"0.0-3.24-2.24","wg1x2azrzgy7nov",134,"166.csv","","null","resources/images/coin2.png","null","",NA,NA,NA,NA,""
"image-keyboard-response",86,188067,"0.0-3.25-0.25","wg1x2azrzgy7nov",134,"166.csv","","2592.10000000149","resources/trios/L1T4A2.jpg","38","restless",0.4,0.7,0.9,0.0200257295147559,"true"
"image-keyboard-response",87,188468,"0.0-3.25-1.25","wg1x2azrzgy7nov",134,"166.csv","","null","resources/maskTrios/BT4B.jpg","null","",NA,NA,NA,NA,""
"image-keyboard-response",88,189674,"0.0-3.25-2.25","wg1x2azrzgy7nov",134,"166.csv","","null","resources/images/coin2.png","null","",NA,NA,NA,NA,""
"image-keyboard-response",89,192432,"0.0-3.26-0.26","wg1x2azrzgy7nov",134,"166.csv","","2757","resources/trios/L2T4A3.jpg","38","restless",0.5,0.7,0.9,0.862651715318369,"false"
"image-keyboard-response",90,192839,"0.0-3.26-1.26","wg1x2azrzgy7nov",134,"166.csv","","null","resources/maskTrios/BT4B.jpg","null","",NA,NA,NA,NA,""
"image-keyboard-response",91,194044,"0.0-3.26-2.26","wg1x2azrzgy7nov",134,"166.csv","","null","resources/images/fishbone.png","null","",NA,NA,NA,NA,""
"image-keyboard-response",92,195051,"0.0-3.27-0.27","wg1x2azrzgy7nov",134,"166.csv","","1006.3000000044703","resources/trios/L2T4A3.jpg","38","restless",0.5,0.6,0.9,0.369550854013898,"true"
"image-keyboard-response",93,195454,"0.0-3.27-1.27","wg1x2azrzgy7nov",134,"166.csv","","null","resources/maskTrios/BT4B.jpg","null","",NA,NA,NA,NA,""
"image-keyboard-response",94,196659,"0.0-3.27-2.27","wg1x2azrzgy7nov",134,"166.csv","","null","resources/images/coin2.png","null","",NA,NA,NA,NA,""
"image-keyboard-response",95,198945,"0.0-3.28-0.28","wg1x2azrzgy7nov",134,"166.csv","","2284.6999999955297","resources/trios/L2T4A3.jpg","38","restless",0.5,0.6,0.9,0.269274563277488,"true"
"image-keyboard-response",96,199350,"0.0-3.28-1.28","wg1x2azrzgy7nov",134,"166.csv","","null","resources/maskTrios/BT4B.jpg","null","",NA,NA,NA,NA,""
"image-keyboard-response",97,200552,"0.0-3.28-2.28","wg1x2azrzgy7nov",134,"166.csv","","null","resources/images/coin2.png","null","",NA,NA,NA,NA,""
"image-keyboard-response",98,201019,"0.0-3.29-0.29","wg1x2azrzgy7nov",134,"166.csv","","466.3999999985099","resources/trios/L1T2A3.jpg","38","restless",0.5,0.5,0.9,0.462025903065396,"true"
"image-keyboard-response",99,201425,"0.0-3.29-1.29","wg1x2azrzgy7nov",134,"166.csv","","null","resources/maskTrios/BT2B.jpg","null","",NA,NA,NA,NA,""
"image-keyboard-response",100,202630,"0.0-3.29-2.29","wg1x2azrzgy7nov",134,"166.csv","","null","resources/images/coin2.png","null","",NA,NA,NA,NA,""
"image-keyboard-response",101,203035,"0.0-3.30-0.30","wg1x2azrzgy7nov",134,"166.csv","","404","resources/trios/L1T2A2.jpg","38","restless",0.5,0.5,0.8,0.238840634292421,"true"
"image-keyboard-response",102,203441,"0.0-3.30-1.30","wg1x2azrzgy7nov",134,"166.csv","","null","resources/maskTrios/BT2B.jpg","null","",NA,NA,NA,NA,""
"image-keyboard-response",103,204646,"0.0-3.30-2.30","wg1x2azrzgy7nov",134,"166.csv","","null","resources/images/coin2.png","null","",NA,NA,NA,NA,""
"image-keyboard-response",104,204901,"0.0-3.31-0.31","wg1x2azrzgy7nov",134,"166.csv","","253.40000000596046","resources/trios/L1T2A2.jpg","38","restless",0.5,0.5,0.8,0.22546924715974,"true"
"image-keyboard-response",105,205306,"0.0-3.31-1.31","wg1x2azrzgy7nov",134,"166.csv","","null","resources/maskTrios/BT2B.jpg","null","",NA,NA,NA,NA,""
"image-keyboard-response",106,206508,"0.0-3.31-2.31","wg1x2azrzgy7nov",134,"166.csv","","null","resources/images/coin2.png","null","",NA,NA,NA,NA,""
"image-keyboard-response",107,206871,"0.0-3.32-0.32","wg1x2azrzgy7nov",134,"166.csv","","361.6000000014901","resources/trios/L1T2A2.jpg","38","restless",0.4,0.5,0.8,0.925261012271529,"false"
"image-keyboard-response",108,207274,"0.0-3.32-1.32","wg1x2azrzgy7nov",134,"166.csv","","null","resources/maskTrios/BT2B.jpg","null","",NA,NA,NA,NA,""
"image-keyboard-response",109,208477,"0.0-3.32-2.32","wg1x2azrzgy7nov",134,"166.csv","","null","resources/images/fishbone.png","null","",NA,NA,NA,NA,""
"image-keyboard-response",110,208839,"0.0-3.33-0.33","wg1x2azrzgy7nov",134,"166.csv","","359.6000000014901","resources/trios/L2T2A3.jpg","38","restless",0.4,0.5,0.8,0.62409375789881,"false"
"image-keyboard-response",111,209242,"0.0-3.33-1.33","wg1x2azrzgy7nov",134,"166.csv","","null","resources/maskTrios/BT2B.jpg","null","",NA,NA,NA,NA,""
"image-keyboard-response",112,210446,"0.0-3.33-2.33","wg1x2azrzgy7nov",134,"166.csv","","null","resources/images/fishbone.png","null","",NA,NA,NA,NA,""
"image-keyboard-response",113,211321,"0.0-3.34-0.34","wg1x2azrzgy7nov",134,"166.csv","","873.6999999955297","resources/trios/L1T4A2.jpg","38","restless",0.4,0.5,0.8,0.0917196150088688,"true"
"image-keyboard-response",114,211724,"0.0-3.34-1.34","wg1x2azrzgy7nov",134,"166.csv","","null","resources/maskTrios/BT4B.jpg","null","",NA,NA,NA,NA,""
"image-keyboard-response",115,212930,"0.0-3.34-2.34","wg1x2azrzgy7nov",134,"166.csv","","null","resources/images/coin2.png","null","",NA,NA,NA,NA,""
"image-keyboard-response",116,213326,"0.0-3.35-0.35","wg1x2azrzgy7nov",134,"166.csv","","394.69999999552965","resources/trios/L2T2A2.jpg","38","restless",0.4,0.5,0.8,0.31007182312495,"true"
"image-keyboard-response",117,213733,"0.0-3.35-1.35","wg1x2azrzgy7nov",134,"166.csv","","null","resources/maskTrios/BT2B.jpg","null","",NA,NA,NA,NA,""
"image-keyboard-response",118,214939,"0.0-3.35-2.35","wg1x2azrzgy7nov",134,"166.csv","","null","resources/images/coin2.png","null","",NA,NA,NA,NA,""
"image-keyboard-response",119,215228,"0.0-3.36-0.36","wg1x2azrzgy7nov",134,"166.csv","","287.80000000447035","resources/trios/L2T2A3.jpg","38","restless",0.4,0.5,0.8,0.172956108819059,"true"
"image-keyboard-response",120,215634,"0.0-3.36-1.36","wg1x2azrzgy7nov",134,"166.csv","","null","resources/maskTrios/BT2B.jpg","null","",NA,NA,NA,NA,""
"image-keyboard-response",121,216841,"0.0-3.36-2.36","wg1x2azrzgy7nov",134,"166.csv","","null","resources/images/coin2.png","null","",NA,NA,NA,NA,""
"image-keyboard-response",122,217219,"0.0-3.37-0.37","wg1x2azrzgy7nov",134,"166.csv","","376.69999999552965","resources/trios/L2T4A3.jpg","38","restless",0.4,0.5,0.9,0.882996090076819,"false"
"image-keyboard-response",123,217624,"0.0-3.37-1.37","wg1x2azrzgy7nov",134,"166.csv","","null","resources/maskTrios/BT4B.jpg","null","",NA,NA,NA,NA,""
"image-keyboard-response",124,218826,"0.0-3.37-2.37","wg1x2azrzgy7nov",134,"166.csv","","null","resources/images/fishbone.png","null","",NA,NA,NA,NA,""
"image-keyboard-response",125,219672,"0.0-3.38-0.38","wg1x2azrzgy7nov",134,"166.csv","","844.6000000014901","resources/trios/L2T4A3.jpg","38","restless",0.4,0.5,0.9,0.733618916484948,"false"
"image-keyboard-response",126,220078,"0.0-3.38-1.38","wg1x2azrzgy7nov",134,"166.csv","","null","resources/maskTrios/BT4B.jpg","null","",NA,NA,NA,NA,""
"image-keyboard-response",127,221280,"0.0-3.38-2.38","wg1x2azrzgy7nov",134,"166.csv","","null","resources/images/fishbone.png","null","",NA,NA,NA,NA,""
"image-keyboard-response",128,222261,"0.0-3.39-0.39","wg1x2azrzgy7nov",134,"166.csv","","980","resources/trios/L2T4A2.jpg","37","restless",0.4,0.6,0.9,0.996570309989242,"false"
"image-keyboard-response",129,222668,"0.0-3.39-1.39","wg1x2azrzgy7nov",134,"166.csv","","null","resources/maskTrios/L2BB.jpg","null","",NA,NA,NA,NA,""
"image-keyboard-response",130,223873,"0.0-3.39-2.39","wg1x2azrzgy7nov",134,"166.csv","","null","resources/images/fishbone.png","null","",NA,NA,NA,NA,""
"image-keyboard-response",131,224218,"0.0-3.40-0.40","wg1x2azrzgy7nov",134,"166.csv","","343.70000000298023","resources/trios/L1T4A3.jpg","39","restless",0.4,0.6,0.9,0.972479141391162,"false"
"image-keyboard-response",132,224621,"0.0-3.40-1.40","wg1x2azrzgy7nov",134,"166.csv","","null","resources/maskTrios/BBA3.jpg","null","",NA,NA,NA,NA,""
"image-keyboard-response",133,225827,"0.0-3.40-2.40","wg1x2azrzgy7nov",134,"166.csv","","null","resources/images/fishbone.png","null","",NA,NA,NA,NA,""
"image-keyboard-response",134,226534,"0.0-3.41-0.41","wg1x2azrzgy7nov",134,"166.csv","","705.8999999985099","resources/trios/L2T2A3.jpg","38","restless",0.4,0.6,0.9,0.149895938961632,"true"
"image-keyboard-response",135,226940,"0.0-3.41-1.41","wg1x2azrzgy7nov",134,"166.csv","","null","resources/maskTrios/BT2B.jpg","null","",NA,NA,NA,NA,""
"image-keyboard-response",136,228146,"0.0-3.41-2.41","wg1x2azrzgy7nov",134,"166.csv","","null","resources/images/coin2.png","null","",NA,NA,NA,NA,""
"image-keyboard-response",137,229053,"0.0-3.42-0.42","wg1x2azrzgy7nov",134,"166.csv","","905.5","resources/trios/L2T4A3.jpg","37","restless",0.5,0.6,0.9,0.868896263858945,"false"
"image-keyboard-response",138,229454,"0.0-3.42-1.42","wg1x2azrzgy7nov",134,"166.csv","","null","resources/maskTrios/L2BB.jpg","null","",NA,NA,NA,NA,""
"image-keyboard-response",139,230660,"0.0-3.42-2.42","wg1x2azrzgy7nov",134,"166.csv","","null","resources/images/fishbone.png","null","",NA,NA,NA,NA,""
"image-keyboard-response",140,231106,"0.0-3.43-0.43","wg1x2azrzgy7nov",134,"166.csv","","444.8999999985099","resources/trios/L2T2A2.jpg","39","restless",0.5,0.6,0.9,0.184111039148511,"true"
"image-keyboard-response",141,231512,"0.0-3.43-1.43","wg1x2azrzgy7nov",134,"166.csv","","null","resources/maskTrios/BBA2.jpg","null","",NA,NA,NA,NA,""
"image-keyboard-response",142,232718,"0.0-3.43-2.43","wg1x2azrzgy7nov",134,"166.csv","","null","resources/images/coin2.png","null","",NA,NA,NA,NA,""
"image-keyboard-response",143,233185,"0.0-3.44-0.44","wg1x2azrzgy7nov",134,"166.csv","","465.6000000014901","resources/trios/L1T4A2.jpg","39","restless",0.5,0.6,0.9,0.385168454231056,"true"
"image-keyboard-response",144,233591,"0.0-3.44-1.44","wg1x2azrzgy7nov",134,"166.csv","","null","resources/maskTrios/BBA2.jpg","null","",NA,NA,NA,NA,""
"image-keyboard-response",145,234796,"0.0-3.44-2.44","wg1x2azrzgy7nov",134,"166.csv","","null","resources/images/coin2.png","null","",NA,NA,NA,NA,""
"image-keyboard-response",146,235338,"0.0-3.45-0.45","wg1x2azrzgy7nov",134,"166.csv","","541.2999999970198","resources/trios/L2T4A3.jpg","39","restless",0.5,0.5,0.9,0.0500594039456062,"true"
"image-keyboard-response",147,235743,"0.0-3.45-1.45","wg1x2azrzgy7nov",134,"166.csv","","null","resources/maskTrios/BBA3.jpg","null","",NA,NA,NA,NA,""
"image-keyboard-response",148,236947,"0.0-3.45-2.45","wg1x2azrzgy7nov",134,"166.csv","","null","resources/images/coin2.png","null","",NA,NA,NA,NA,""
"image-keyboard-response",149,237429,"0.0-3.46-0.46","wg1x2azrzgy7nov",134,"166.csv","","481.19999999552965","resources/trios/L1T4A3.jpg","39","restless",0.5,0.5,0.9,0.132563281214339,"true"
"image-keyboard-response",150,237836,"0.0-3.46-1.46","wg1x2azrzgy7nov",134,"166.csv","","null","resources/maskTrios/BBA3.jpg","null","",NA,NA,NA,NA,""
"image-keyboard-response",151,239038,"0.0-3.46-2.46","wg1x2azrzgy7nov",134,"166.csv","","null","resources/images/coin2.png","null","",NA,NA,NA,NA,""
"image-keyboard-response",152,239704,"0.0-3.47-0.47","wg1x2azrzgy7nov",134,"166.csv","","665","resources/trios/L1T2A2.jpg","39","restless",0.5,0.5,0.9,0.262124696150821,"true"
"image-keyboard-response",153,240108,"0.0-3.47-1.47","wg1x2azrzgy7nov",134,"166.csv","","null","resources/maskTrios/BBA2.jpg","null","",NA,NA,NA,NA,""
"image-keyboard-response",154,241310,"0.0-3.47-2.47","wg1x2azrzgy7nov",134,"166.csv","","null","resources/images/coin2.png","null","",NA,NA,NA,NA,""
"image-keyboard-response",155,241802,"0.0-3.48-0.48","wg1x2azrzgy7nov",134,"166.csv","","491.20000000298023","resources/trios/L1T4A2.jpg","39","restless",0.5,0.5,0.9,0.808101648022185,"true"
"image-keyboard-response",156,242204,"0.0-3.48-1.48","wg1x2azrzgy7nov",134,"166.csv","","null","resources/maskTrios/BBA2.jpg","null","",NA,NA,NA,NA,""
"image-keyboard-response",157,243409,"0.0-3.48-2.48","wg1x2azrzgy7nov",134,"166.csv","","null","resources/images/coin2.png","null","",NA,NA,NA,NA,""
"image-keyboard-response",158,243929,"0.0-3.49-0.49","wg1x2azrzgy7nov",134,"166.csv","","517.1000000014901","resources/trios/L1T2A3.jpg","39","restless",0.5,0.5,0.8,0.0314028043868253,"true"
"image-keyboard-response",159,244331,"0.0-3.49-1.49","wg1x2azrzgy7nov",134,"166.csv","","null","resources/maskTrios/BBA3.jpg","null","",NA,NA,NA,NA,""
"image-keyboard-response",160,245537,"0.0-3.49-2.49","wg1x2azrzgy7nov",134,"166.csv","","null","resources/images/coin2.png","null","",NA,NA,NA,NA,""
"image-keyboard-response",161,246035,"0.0-3.50-0.50","wg1x2azrzgy7nov",134,"166.csv","","497.19999999552965","resources/trios/L2T4A2.jpg","39","restless",0.4,0.6,0.8,0.0225934858546133,"true"
"image-keyboard-response",162,246441,"0.0-3.50-1.50","wg1x2azrzgy7nov",134,"166.csv","","null","resources/maskTrios/BBA2.jpg","null","",NA,NA,NA,NA,""
"image-keyboard-response",163,247648,"0.0-3.50-2.50","wg1x2azrzgy7nov",134,"166.csv","","null","resources/images/coin2.png","null","",NA,NA,NA,NA,""
"image-keyboard-response",164,248820,"0.0-3.51-0.51","wg1x2azrzgy7nov",134,"166.csv","","1171.0999999940395","resources/trios/L1T2A3.jpg","39","restless",0.4,0.5,0.8,0.767057997786467,"true"
"image-keyboard-response",165,249224,"0.0-3.51-1.51","wg1x2azrzgy7nov",134,"166.csv","","null","resources/maskTrios/BBA3.jpg","null","",NA,NA,NA,NA,""
"image-keyboard-response",166,250429,"0.0-3.51-2.51","wg1x2azrzgy7nov",134,"166.csv","","null","resources/images/coin2.png","null","",NA,NA,NA,NA,""
"image-keyboard-response",167,252269,"0.0-3.52-0.52","wg1x2azrzgy7nov",134,"166.csv","","1838.6999999955297","resources/trios/L2T4A2.jpg","39","restless",0.3,0.5,0.8,0.346180839695197,"true"
"image-keyboard-response",168,252675,"0.0-3.52-1.52","wg1x2azrzgy7nov",134,"166.csv","","null","resources/maskTrios/BBA2.jpg","null","",NA,NA,NA,NA,""
"image-keyboard-response",169,253881,"0.0-3.52-2.52","wg1x2azrzgy7nov",134,"166.csv","","null","resources/images/coin2.png","null","",NA,NA,NA,NA,""
"image-keyboard-response",170,261105,"0.0-3.53-0.53","wg1x2azrzgy7nov",134,"166.csv","","7222.5999999940395","resources/trios/L1T2A3.jpg","39","restless",0.2,0.5,0.8,0.92447145284381,"false"
"image-keyboard-response",171,261512,"0.0-3.53-1.53","wg1x2azrzgy7nov",134,"166.csv","","null","resources/maskTrios/BBA3.jpg","null","",NA,NA,NA,NA,""
"image-keyboard-response",172,262718,"0.0-3.53-2.53","wg1x2azrzgy7nov",134,"166.csv","","null","resources/images/fishbone.png","null","",NA,NA,NA,NA,""
"image-keyboard-response",173,263079,"0.0-3.54-0.54","wg1x2azrzgy7nov",134,"166.csv","","359.30000000447035","resources/trios/L1T2A3.jpg","37","restless",0.3,0.4,0.8,0.868165162920394,"false"
"image-keyboard-response",174,263485,"0.0-3.54-1.54","wg1x2azrzgy7nov",134,"166.csv","","null","resources/maskTrios/L1BB.jpg","null","",NA,NA,NA,NA,""
"image-keyboard-response",175,264691,"0.0-3.54-2.54","wg1x2azrzgy7nov",134,"166.csv","","null","resources/images/fishbone.png","null","",NA,NA,NA,NA,""
"image-keyboard-response",176,265132,"0.0-3.55-0.55","wg1x2azrzgy7nov",134,"166.csv","","440.6000000014901","resources/trios/L2T4A3.jpg","38","restless",0.3,0.4,0.8,0.0571994879070798,"true"
"image-keyboard-response",177,265539,"0.0-3.55-1.55","wg1x2azrzgy7nov",134,"166.csv","","null","resources/maskTrios/BT4B.jpg","null","",NA,NA,NA,NA,""
"image-keyboard-response",178,266745,"0.0-3.55-2.55","wg1x2azrzgy7nov",134,"166.csv","","null","resources/images/coin2.png","null","",NA,NA,NA,NA,""
"image-keyboard-response",179,267241,"0.0-3.56-0.56","wg1x2azrzgy7nov",134,"166.csv","","494.29999999701977","resources/trios/L1T2A3.jpg","38","restless",0.2,0.4,0.8,0.905567999352619,"false"
"image-keyboard-response",180,267647,"0.0-3.56-1.56","wg1x2azrzgy7nov",134,"166.csv","","null","resources/maskTrios/BT2B.jpg","null","",NA,NA,NA,NA,""
"image-keyboard-response",181,268851,"0.0-3.56-2.56","wg1x2azrzgy7nov",134,"166.csv","","null","resources/images/fishbone.png","null","",NA,NA,NA,NA,""
"image-keyboard-response",182,269352,"0.0-3.57-0.57","wg1x2azrzgy7nov",134,"166.csv","","499.70000000298023","resources/trios/L2T2A2.jpg","37","restless",0.2,0.4,0.8,0.665625326764555,"false"
"image-keyboard-response",183,269758,"0.0-3.57-1.57","wg1x2azrzgy7nov",134,"166.csv","","null","resources/maskTrios/L2BB.jpg","null","",NA,NA,NA,NA,""
"image-keyboard-response",184,270965,"0.0-3.57-2.57","wg1x2azrzgy7nov",134,"166.csv","","null","resources/images/fishbone.png","null","",NA,NA,NA,NA,""
"image-keyboard-response",185,271247,"0.0-3.58-0.58","wg1x2azrzgy7nov",134,"166.csv","","281.19999999552965","resources/trios/L2T4A2.jpg","39","restless",0.2,0.5,0.8,0.0259248394729892,"true"
"image-keyboard-response",186,271649,"0.0-3.58-1.58","wg1x2azrzgy7nov",134,"166.csv","","null","resources/maskTrios/BBA2.jpg","null","",NA,NA,NA,NA,""
"image-keyboard-response",187,272856,"0.0-3.58-2.58","wg1x2azrzgy7nov",134,"166.csv","","null","resources/images/coin2.png","null","",NA,NA,NA,NA,""
"image-keyboard-response",188,273202,"0.0-3.59-0.59","wg1x2azrzgy7nov",134,"166.csv","","345","resources/trios/L2T2A2.jpg","39","restless",0.2,0.5,0.7,0.150609554916161,"true"
"image-keyboard-response",189,273608,"0.0-3.59-1.59","wg1x2azrzgy7nov",134,"166.csv","","null","resources/maskTrios/BBA2.jpg","null","",NA,NA,NA,NA,""
"image-keyboard-response",190,274815,"0.0-3.59-2.59","wg1x2azrzgy7nov",134,"166.csv","","null","resources/images/coin2.png","null","",NA,NA,NA,NA,""
"image-keyboard-response",191,275319,"0.0-3.60-0.60","wg1x2azrzgy7nov",134,"166.csv","","503.1000000014901","resources/trios/L1T2A3.jpg","39","restless",0.2,0.5,0.7,0.399126329040222,"true"
"image-keyboard-response",192,275726,"0.0-3.60-1.60","wg1x2azrzgy7nov",134,"166.csv","","null","resources/maskTrios/BBA3.jpg","null","",NA,NA,NA,NA,""
"image-keyboard-response",193,276932,"0.0-3.60-2.60","wg1x2azrzgy7nov",134,"166.csv","","null","resources/images/coin2.png","null","",NA,NA,NA,NA,""
"image-keyboard-response",194,277287,"0.0-3.61-0.61","wg1x2azrzgy7nov",134,"166.csv","","353.3999999985099","resources/trios/L2T2A2.jpg","39","restless",0.2,0.5,0.6,0.600392614145632,"false"
"image-keyboard-response",195,277692,"0.0-3.61-1.61","wg1x2azrzgy7nov",134,"166.csv","","null","resources/maskTrios/BBA2.jpg","null","",NA,NA,NA,NA,""
"image-keyboard-response",196,278894,"0.0-3.61-2.61","wg1x2azrzgy7nov",134,"166.csv","","null","resources/images/fishbone.png","null","",NA,NA,NA,NA,""
"image-keyboard-response",197,279405,"0.0-3.62-0.62","wg1x2azrzgy7nov",134,"166.csv","","510.3999999985099","resources/trios/L1T2A2.jpg","39","restless",0.2,0.5,0.6,0.995843692560269,"false"
"image-keyboard-response",198,279812,"0.0-3.62-1.62","wg1x2azrzgy7nov",134,"166.csv","","null","resources/maskTrios/BBA2.jpg","null","",NA,NA,NA,NA,""
"image-keyboard-response",199,281018,"0.0-3.62-2.62","wg1x2azrzgy7nov",134,"166.csv","","null","resources/images/fishbone.png","null","",NA,NA,NA,NA,""
"image-keyboard-response",200,281328,"0.0-3.63-0.63","wg1x2azrzgy7nov",134,"166.csv","","308.20000000298023","resources/trios/L2T4A3.jpg","37","restless",0.2,0.6,0.6,0.141924977475431,"true"
"image-keyboard-response",201,281734,"0.0-3.63-1.63","wg1x2azrzgy7nov",134,"166.csv","","null","resources/maskTrios/L2BB.jpg","null","",NA,NA,NA,NA,""
"image-keyboard-response",202,282941,"0.0-3.63-2.63","wg1x2azrzgy7nov",134,"166.csv","","null","resources/images/coin2.png","null","",NA,NA,NA,NA,""
"image-keyboard-response",203,283254,"0.0-3.64-0.64","wg1x2azrzgy7nov",134,"166.csv","","312.30000000447035","resources/trios/L2T4A2.jpg","37","restless",0.2,0.6,0.6,0.597315104871704,"false"
"image-keyboard-response",204,283661,"0.0-3.64-1.64","wg1x2azrzgy7nov",134,"166.csv","","null","resources/maskTrios/L2BB.jpg","null","",NA,NA,NA,NA,""
"image-keyboard-response",205,284867,"0.0-3.64-2.64","wg1x2azrzgy7nov",134,"166.csv","","null","resources/images/fishbone.png","null","",NA,NA,NA,NA,""
"image-keyboard-response",206,285255,"0.0-3.65-0.65","wg1x2azrzgy7nov",134,"166.csv","","386.70000000298023","resources/trios/L1T2A3.jpg","37","restless",0.2,0.6,0.6,0.572639229780975,"false"
"image-keyboard-response",207,285661,"0.0-3.65-1.65","wg1x2azrzgy7nov",134,"166.csv","","null","resources/maskTrios/L1BB.jpg","null","",NA,NA,NA,NA,""
"image-keyboard-response",208,286863,"0.0-3.65-2.65","wg1x2azrzgy7nov",134,"166.csv","","null","resources/images/fishbone.png","null","",NA,NA,NA,NA,""
"image-keyboard-response",209,287209,"0.0-3.66-0.66","wg1x2azrzgy7nov",134,"166.csv","","344.6000000014901","resources/trios/L2T2A2.jpg","38","restless",0.2,0.6,0.6,0.648676578711407,"false"
"image-keyboard-response",210,287616,"0.0-3.66-1.66","wg1x2azrzgy7nov",134,"166.csv","","null","resources/maskTrios/BT2B.jpg","null","",NA,NA,NA,NA,""
"image-keyboard-response",211,288819,"0.0-3.66-2.66","wg1x2azrzgy7nov",134,"166.csv","","null","resources/images/fishbone.png","null","",NA,NA,NA,NA,""
"image-keyboard-response",212,289415,"0.0-3.67-0.67","wg1x2azrzgy7nov",134,"166.csv","","594.7999999970198","resources/trios/L2T2A2.jpg","39","restless",0.2,0.6,0.6,0.758827432910558,"false"
"image-keyboard-response",213,289817,"0.0-3.67-1.67","wg1x2azrzgy7nov",134,"166.csv","","null","resources/maskTrios/BBA2.jpg","null","",NA,NA,NA,NA,""
"image-keyboard-response",214,291022,"0.0-3.67-2.67","wg1x2azrzgy7nov",134,"166.csv","","null","resources/images/fishbone.png","null","",NA,NA,NA,NA,""
"image-keyboard-response",215,291365,"0.0-3.68-0.68","wg1x2azrzgy7nov",134,"166.csv","","341.5","resources/trios/L1T4A2.jpg","37","restless",0.2,0.6,0.6,0.613310714643234,"false"
"image-keyboard-response",216,291767,"0.0-3.68-1.68","wg1x2azrzgy7nov",134,"166.csv","","null","resources/maskTrios/L1BB.jpg","null","",NA,NA,NA,NA,""
"image-keyboard-response",217,292974,"0.0-3.68-2.68","wg1x2azrzgy7nov",134,"166.csv","","null","resources/images/fishbone.png","null","",NA,NA,NA,NA,""
"image-keyboard-response",218,293377,"0.0-3.69-0.69","wg1x2azrzgy7nov",134,"166.csv","","402.29999999701977","resources/trios/L1T2A3.jpg","37","restless",0.2,0.6,0.6,0.318639131625579,"false"
"image-keyboard-response",219,293784,"0.0-3.69-1.69","wg1x2azrzgy7nov",134,"166.csv","","null","resources/maskTrios/L1BB.jpg","null","",NA,NA,NA,NA,""
"image-keyboard-response",220,294985,"0.0-3.69-2.69","wg1x2azrzgy7nov",134,"166.csv","","null","resources/images/fishbone.png","null","",NA,NA,NA,NA,""
"image-keyboard-response",221,295334,"0.0-3.70-0.70","wg1x2azrzgy7nov",134,"166.csv","","347.30000000447035","resources/trios/L1T2A3.jpg","38","restless",0.3,0.6,0.6,0.451735044503721,"true"
"image-keyboard-response",222,295740,"0.0-3.70-1.70","wg1x2azrzgy7nov",134,"166.csv","","null","resources/maskTrios/BT2B.jpg","null","",NA,NA,NA,NA,""
"image-keyboard-response",223,296947,"0.0-3.70-2.70","wg1x2azrzgy7nov",134,"166.csv","","null","resources/images/coin2.png","null","",NA,NA,NA,NA,""
"image-keyboard-response",224,297546,"0.0-3.71-0.71","wg1x2azrzgy7nov",134,"166.csv","","598.2000000029802","resources/trios/L1T2A2.jpg","38","restless",0.3,0.5,0.6,0.796186390200979,"false"
"image-keyboard-response",225,297950,"0.0-3.71-1.71","wg1x2azrzgy7nov",134,"166.csv","","null","resources/maskTrios/BT2B.jpg","null","",NA,NA,NA,NA,""
"image-keyboard-response",226,299155,"0.0-3.71-2.71","wg1x2azrzgy7nov",134,"166.csv","","null","resources/images/fishbone.png","null","",NA,NA,NA,NA,""
"image-keyboard-response",227,299699,"0.0-3.72-0.72","wg1x2azrzgy7nov",134,"166.csv","","542.6000000014901","resources/trios/L1T4A2.jpg","38","restless",0.3,0.5,0.6,0.272585741088064,"true"
"image-keyboard-response",228,300106,"0.0-3.72-1.72","wg1x2azrzgy7nov",134,"166.csv","","null","resources/maskTrios/BT4B.jpg","null","",NA,NA,NA,NA,""
"image-keyboard-response",229,301310,"0.0-3.72-2.72","wg1x2azrzgy7nov",134,"166.csv","","null","resources/images/coin2.png","null","",NA,NA,NA,NA,""
"image-keyboard-response",230,301767,"0.0-3.73-0.73","wg1x2azrzgy7nov",134,"166.csv","","453.8999999985099","resources/trios/L2T2A3.jpg","38","restless",0.3,0.5,0.6,0.847399481679544,"false"
"image-keyboard-response",231,302173,"0.0-3.73-1.73","wg1x2azrzgy7nov",134,"166.csv","","null","resources/maskTrios/BT2B.jpg","null","",NA,NA,NA,NA,""
"image-keyboard-response",232,303375,"0.0-3.73-2.73","wg1x2azrzgy7nov",134,"166.csv","","null","resources/images/fishbone.png","null","",NA,NA,NA,NA,""
"image-keyboard-response",233,303699,"0.0-3.74-0.74","wg1x2azrzgy7nov",134,"166.csv","","322.69999999552965","resources/trios/L1T4A3.jpg","39","restless",0.3,0.5,0.6,0.843563715665963,"false"
"image-keyboard-response",234,304105,"0.0-3.74-1.74","wg1x2azrzgy7nov",134,"166.csv","","null","resources/maskTrios/BBA3.jpg","null","",NA,NA,NA,NA,""
"image-keyboard-response",235,305310,"0.0-3.74-2.74","wg1x2azrzgy7nov",134,"166.csv","","null","resources/images/fishbone.png","null","",NA,NA,NA,NA,""
"image-keyboard-response",236,305641,"0.0-3.75-0.75","wg1x2azrzgy7nov",134,"166.csv","","329.6000000014901","resources/trios/L2T4A3.jpg","38","restless",0.3,0.5,0.6,0.952565419152538,"false"
"image-keyboard-response",237,306048,"0.0-3.75-1.75","wg1x2azrzgy7nov",134,"166.csv","","null","resources/maskTrios/BT4B.jpg","null","",NA,NA,NA,NA,""
"image-keyboard-response",238,307254,"0.0-3.75-2.75","wg1x2azrzgy7nov",134,"166.csv","","null","resources/images/fishbone.png","null","",NA,NA,NA,NA,""
"image-keyboard-response",239,307659,"0.0-3.76-0.76","wg1x2azrzgy7nov",134,"166.csv","","403.70000000298023","resources/trios/L2T2A3.jpg","37","restless",0.3,0.5,0.6,0.370455757615313,"false"
"image-keyboard-response",240,308065,"0.0-3.76-1.76","wg1x2azrzgy7nov",134,"166.csv","","null","resources/maskTrios/L2BB.jpg","null","",NA,NA,NA,NA,""
"image-keyboard-response",241,309272,"0.0-3.76-2.76","wg1x2azrzgy7nov",134,"166.csv","","null","resources/images/fishbone.png","null","",NA,NA,NA,NA,""
"image-keyboard-response",242,309603,"0.0-3.77-0.77","wg1x2azrzgy7nov",134,"166.csv","","329.8999999985099","resources/trios/L2T4A2.jpg","39","restless",0.4,0.5,0.6,0.262364498935666,"true"
"image-keyboard-response",243,310009,"0.0-3.77-1.77","wg1x2azrzgy7nov",134,"166.csv","","null","resources/maskTrios/BBA2.jpg","null","",NA,NA,NA,NA,""
"image-keyboard-response",244,311212,"0.0-3.77-2.77","wg1x2azrzgy7nov",134,"166.csv","","null","resources/images/coin2.png","null","",NA,NA,NA,NA,""
"image-keyboard-response",245,311634,"0.0-3.78-0.78","wg1x2azrzgy7nov",134,"166.csv","","420.20000000298023","resources/trios/L1T2A2.jpg","39","restless",0.4,0.5,0.6,0.34504392255258,"true"
"image-keyboard-response",246,312039,"0.0-3.78-1.78","wg1x2azrzgy7nov",134,"166.csv","","null","resources/maskTrios/BBA2.jpg","null","",NA,NA,NA,NA,""
"image-keyboard-response",247,313245,"0.0-3.78-2.78","wg1x2azrzgy7nov",134,"166.csv","","null","resources/images/coin2.png","null","",NA,NA,NA,NA,""
"image-keyboard-response",248,313627,"0.0-3.79-0.79","wg1x2azrzgy7nov",134,"166.csv","","380.1000000014901","resources/trios/L1T2A3.jpg","39","restless",0.4,0.6,0.6,0.642745727141064,"false"
"image-keyboard-response",249,314033,"0.0-3.79-1.79","wg1x2azrzgy7nov",134,"166.csv","","null","resources/maskTrios/BBA3.jpg","null","",NA,NA,NA,NA,""
"image-keyboard-response",250,315239,"0.0-3.79-2.79","wg1x2azrzgy7nov",134,"166.csv","","null","resources/images/fishbone.png","null","",NA,NA,NA,NA,""
"image-keyboard-response",251,322412,"0.0-3.80-0.80","wg1x2azrzgy7nov",134,"166.csv","","7171.60000000149","resources/trios/L1T2A2.jpg","37","restless",0.4,0.6,0.6,0.362259483716925,"true"
"image-keyboard-response",252,322817,"0.0-3.80-1.80","wg1x2azrzgy7nov",134,"166.csv","","null","resources/maskTrios/L1BB.jpg","null","",NA,NA,NA,NA,""
"image-keyboard-response",253,324024,"0.0-3.80-2.80","wg1x2azrzgy7nov",134,"166.csv","","null","resources/images/coin2.png","null","",NA,NA,NA,NA,""
"image-keyboard-response",254,325436,"0.0-3.81-0.81","wg1x2azrzgy7nov",134,"166.csv","","1410.6999999955297","resources/trios/L2T2A3.jpg","37","restless",0.4,0.6,0.6,0.825550688414396,"false"
"image-keyboard-response",255,325842,"0.0-3.81-1.81","wg1x2azrzgy7nov",134,"166.csv","","null","resources/maskTrios/L2BB.jpg","null","",NA,NA,NA,NA,""
"image-keyboard-response",256,327047,"0.0-3.81-2.81","wg1x2azrzgy7nov",134,"166.csv","","null","resources/images/fishbone.png","null","",NA,NA,NA,NA,""
"image-keyboard-response",257,327371,"0.0-3.82-0.82","wg1x2azrzgy7nov",134,"166.csv","","323","resources/trios/L2T2A2.jpg","38","restless",0.4,0.6,0.6,0.849357926246887,"false"
"image-keyboard-response",258,327778,"0.0-3.82-1.82","wg1x2azrzgy7nov",134,"166.csv","","null","resources/maskTrios/BT2B.jpg","null","",NA,NA,NA,NA,""
"image-keyboard-response",259,328981,"0.0-3.82-2.82","wg1x2azrzgy7nov",134,"166.csv","","null","resources/images/fishbone.png","null","",NA,NA,NA,NA,""
"image-keyboard-response",260,329583,"0.0-3.83-0.83","wg1x2azrzgy7nov",134,"166.csv","","600.8000000044703","resources/trios/L1T2A2.jpg","39","restless",0.4,0.5,0.6,0.594544468788708,"true"
"image-keyboard-response",261,329988,"0.0-3.83-1.83","wg1x2azrzgy7nov",134,"166.csv","","null","resources/maskTrios/BBA2.jpg","null","",NA,NA,NA,NA,""
"image-keyboard-response",262,331195,"0.0-3.83-2.83","wg1x2azrzgy7nov",134,"166.csv","","null","resources/images/coin2.png","null","",NA,NA,NA,NA,""
"image-keyboard-response",263,331671,"0.0-3.84-0.84","wg1x2azrzgy7nov",134,"166.csv","","474.6000000014901","resources/trios/L1T4A3.jpg","39","restless",0.4,0.5,0.6,0.0333731556740953,"true"
"image-keyboard-response",264,332077,"0.0-3.84-1.84","wg1x2azrzgy7nov",134,"166.csv","","null","resources/maskTrios/BBA3.jpg","null","",NA,NA,NA,NA,""
"image-keyboard-response",265,333284,"0.0-3.84-2.84","wg1x2azrzgy7nov",134,"166.csv","","null","resources/images/coin2.png","null","",NA,NA,NA,NA,""
"image-keyboard-response",266,333849,"0.0-3.85-0.85","wg1x2azrzgy7nov",134,"166.csv","","563.9000000059605","resources/trios/L1T2A2.jpg","39","restless",0.4,0.4,0.6,0.221064576280039,"true"
"image-keyboard-response",267,334251,"0.0-3.85-1.85","wg1x2azrzgy7nov",134,"166.csv","","null","resources/maskTrios/BBA2.jpg","null","",NA,NA,NA,NA,""
"image-keyboard-response",268,335457,"0.0-3.85-2.85","wg1x2azrzgy7nov",134,"166.csv","","null","resources/images/coin2.png","null","",NA,NA,NA,NA,""
"image-keyboard-response",269,335908,"0.0-3.86-0.86","wg1x2azrzgy7nov",134,"166.csv","","449.20000000298023","resources/trios/L1T2A2.jpg","39","restless",0.4,0.4,0.5,0.232890151321229,"true"
"image-keyboard-response",270,336314,"0.0-3.86-1.86","wg1x2azrzgy7nov",134,"166.csv","","null","resources/maskTrios/BBA2.jpg","null","",NA,NA,NA,NA,""
"image-keyboard-response",271,337519,"0.0-3.86-2.86","wg1x2azrzgy7nov",134,"166.csv","","null","resources/images/coin2.png","null","",NA,NA,NA,NA,""
"image-keyboard-response",272,337901,"0.0-3.87-0.87","wg1x2azrzgy7nov",134,"166.csv","","380.30000000447035","resources/trios/L1T2A3.jpg","39","restless",0.4,0.4,0.4,0.0272191978536989,"true"
"image-keyboard-response",273,338307,"0.0-3.87-1.87","wg1x2azrzgy7nov",134,"166.csv","","null","resources/maskTrios/BBA3.jpg","null","",NA,NA,NA,NA,""
"image-keyboard-response",274,339513,"0.0-3.87-2.87","wg1x2azrzgy7nov",134,"166.csv","","null","resources/images/coin2.png","null","",NA,NA,NA,NA,""
"image-keyboard-response",275,339855,"0.0-3.88-0.88","wg1x2azrzgy7nov",134,"166.csv","","340.19999999552965","resources/trios/L1T4A3.jpg","39","restless",0.4,0.4,0.4,0.29697025192376,"true"
"image-keyboard-response",276,340257,"0.0-3.88-1.88","wg1x2azrzgy7nov",134,"166.csv","","null","resources/maskTrios/BBA3.jpg","null","",NA,NA,NA,NA,""
"image-keyboard-response",277,341460,"0.0-3.88-2.88","wg1x2azrzgy7nov",134,"166.csv","","null","resources/images/coin2.png","null","",NA,NA,NA,NA,""
"image-keyboard-response",278,341774,"0.0-3.89-0.89","wg1x2azrzgy7nov",134,"166.csv","","312.69999999552965","resources/trios/L2T2A3.jpg","39","restless",0.4,0.4,0.4,0.379320816235178,"true"
"image-keyboard-response",279,342178,"0.0-3.89-1.89","wg1x2azrzgy7nov",134,"166.csv","","null","resources/maskTrios/BBA3.jpg","null","",NA,NA,NA,NA,""
"image-keyboard-response",280,343381,"0.0-3.89-2.89","wg1x2azrzgy7nov",134,"166.csv","","null","resources/images/coin2.png","null","",NA,NA,NA,NA,""
"image-keyboard-response",281,343622,"0.0-3.90-0.90","wg1x2azrzgy7nov",134,"166.csv","","239.40000000596046","resources/trios/L2T2A3.jpg","39","restless",0.4,0.3,0.4,0.799389868625483,"false"
"image-keyboard-response",282,344024,"0.0-3.90-1.90","wg1x2azrzgy7nov",134,"166.csv","","null","resources/maskTrios/BBA3.jpg","null","",NA,NA,NA,NA,""
"image-keyboard-response",283,345231,"0.0-3.90-2.90","wg1x2azrzgy7nov",134,"166.csv","","null","resources/images/fishbone.png","null","",NA,NA,NA,NA,""
"image-keyboard-response",284,345463,"0.0-3.91-0.91","wg1x2azrzgy7nov",134,"166.csv","","230.39999999850988","resources/trios/L1T4A2.jpg","37","restless",0.4,0.3,0.4,0.815179870531691,"false"
"image-keyboard-response",285,345867,"0.0-3.91-1.91","wg1x2azrzgy7nov",134,"166.csv","","null","resources/maskTrios/L1BB.jpg","null","",NA,NA,NA,NA,""
"image-keyboard-response",286,347073,"0.0-3.91-2.91","wg1x2azrzgy7nov",134,"166.csv","","null","resources/images/fishbone.png","null","",NA,NA,NA,NA,""
"image-keyboard-response",287,347383,"0.0-3.92-0.92","wg1x2azrzgy7nov",134,"166.csv","","308.8999999985099","resources/trios/L1T4A2.jpg","38","restless",0.4,0.3,0.4,0.768362698407733,"false"
"image-keyboard-response",288,347789,"0.0-3.92-1.92","wg1x2azrzgy7nov",134,"166.csv","","null","resources/maskTrios/BT4B.jpg","null","",NA,NA,NA,NA,""
"image-keyboard-response",289,348995,"0.0-3.92-2.92","wg1x2azrzgy7nov",134,"166.csv","","null","resources/images/fishbone.png","null","",NA,NA,NA,NA,""
"image-keyboard-response",290,349315,"0.0-3.93-0.93","wg1x2azrzgy7nov",134,"166.csv","","317","resources/trios/L1T2A2.jpg","38","restless",0.4,0.2,0.4,0.248288606964338,"false"
"image-keyboard-response",291,349721,"0.0-3.93-1.93","wg1x2azrzgy7nov",134,"166.csv","","null","resources/maskTrios/BT2B.jpg","null","",NA,NA,NA,NA,""
"image-keyboard-response",292,350928,"0.0-3.93-2.93","wg1x2azrzgy7nov",134,"166.csv","","null","resources/images/fishbone.png","null","",NA,NA,NA,NA,""
"image-keyboard-response",293,351567,"0.0-3.94-0.94","wg1x2azrzgy7nov",134,"166.csv","","637.3999999985099","resources/trios/L2T4A2.jpg","39","restless",0.5,0.2,0.4,0.555859836614524,"false"
"image-keyboard-response",294,351973,"0.0-3.94-1.94","wg1x2azrzgy7nov",134,"166.csv","","null","resources/maskTrios/BBA2.jpg","null","",NA,NA,NA,NA,""
"image-keyboard-response",295,353178,"0.0-3.94-2.94","wg1x2azrzgy7nov",134,"166.csv","","null","resources/images/fishbone.png","null","",NA,NA,NA,NA,""
"image-keyboard-response",296,353558,"0.0-3.95-0.95","wg1x2azrzgy7nov",134,"166.csv","","378","resources/trios/L2T2A3.jpg","39","restless",0.5,0.2,0.4,0.162244459652583,"true"
"image-keyboard-response",297,353964,"0.0-3.95-1.95","wg1x2azrzgy7nov",134,"166.csv","","null","resources/maskTrios/BBA3.jpg","null","",NA,NA,NA,NA,""
"image-keyboard-response",298,355170,"0.0-3.95-2.95","wg1x2azrzgy7nov",134,"166.csv","","null","resources/images/coin2.png","null","",NA,NA,NA,NA,""
"image-keyboard-response",299,355772,"0.0-3.96-0.96","wg1x2azrzgy7nov",134,"166.csv","","600.2999999970198","resources/trios/L2T4A3.jpg","39","restless",0.5,0.2,0.4,0.960076332827134,"false"
"image-keyboard-response",300,356178,"0.0-3.96-1.96","wg1x2azrzgy7nov",134,"166.csv","","null","resources/maskTrios/BBA3.jpg","null","",NA,NA,NA,NA,""
"image-keyboard-response",301,357383,"0.0-3.96-2.96","wg1x2azrzgy7nov",134,"166.csv","","null","resources/images/fishbone.png","null","",NA,NA,NA,NA,""
"image-keyboard-response",302,357943,"0.0-3.97-0.97","wg1x2azrzgy7nov",134,"166.csv","","558.4000000059605","resources/trios/L2T2A2.jpg","37","restless",0.5,0.2,0.3,0.999319876931117,"false"
"image-keyboard-response",303,358350,"0.0-3.97-1.97","wg1x2azrzgy7nov",134,"166.csv","","null","resources/maskTrios/L2BB.jpg","null","",NA,NA,NA,NA,""
"image-keyboard-response",304,359553,"0.0-3.97-2.97","wg1x2azrzgy7nov",134,"166.csv","","null","resources/images/fishbone.png","null","",NA,NA,NA,NA,""
"image-keyboard-response",305,360050,"0.0-3.98-0.98","wg1x2azrzgy7nov",134,"166.csv","","495.6000000014901","resources/trios/L2T2A2.jpg","37","restless",0.5,0.2,0.3,0.180715615659761,"true"
"image-keyboard-response",306,360457,"0.0-3.98-1.98","wg1x2azrzgy7nov",134,"166.csv","","null","resources/maskTrios/L2BB.jpg","null","",NA,NA,NA,NA,""
"image-keyboard-response",307,361662,"0.0-3.98-2.98","wg1x2azrzgy7nov",134,"166.csv","","null","resources/images/coin2.png","null","",NA,NA,NA,NA,""
"image-keyboard-response",308,362225,"0.0-3.99-0.99","wg1x2azrzgy7nov",134,"166.csv","","561.8000000044703","resources/trios/L2T2A2.jpg","37","restless",0.5,0.2,0.3,0.698129320506384,"false"
"image-keyboard-response",309,362631,"0.0-3.99-1.99","wg1x2azrzgy7nov",134,"166.csv","","null","resources/maskTrios/L2BB.jpg","null","",NA,NA,NA,NA,""
"image-keyboard-response",310,363837,"0.0-3.99-2.99","wg1x2azrzgy7nov",134,"166.csv","","null","resources/images/fishbone.png","null","",NA,NA,NA,NA,""
"image-keyboard-response",311,364166,"0.0-3.100-0.100","wg1x2azrzgy7nov",134,"166.csv","","327.6000000014901","resources/trios/L1T4A2.jpg","38","restless",0.5,0.2,0.3,0.431294875720598,"false"
"image-keyboard-response",312,364571,"0.0-3.100-1.100","wg1x2azrzgy7nov",134,"166.csv","","null","resources/maskTrios/BT4B.jpg","null","",NA,NA,NA,NA,""
"image-keyboard-response",313,365777,"0.0-3.100-2.100","wg1x2azrzgy7nov",134,"166.csv","","null","resources/images/fishbone.png","null","",NA,NA,NA,NA,""
"image-keyboard-response",314,366145,"0.0-3.101-0.101","wg1x2azrzgy7nov",134,"166.csv","","366.5","resources/trios/L2T4A2.jpg","39","restless",0.5,0.2,0.3,0.370494813743315,"false"
"image-keyboard-response",315,366549,"0.0-3.101-1.101","wg1x2azrzgy7nov",134,"166.csv","","null","resources/maskTrios/BBA2.jpg","null","",NA,NA,NA,NA,""
"image-keyboard-response",316,367754,"0.0-3.101-2.101","wg1x2azrzgy7nov",134,"166.csv","","null","resources/images/fishbone.png","null","",NA,NA,NA,NA,""
"image-keyboard-response",317,368221,"0.0-3.102-0.102","wg1x2azrzgy7nov",134,"166.csv","","465.29999999701977","resources/trios/L1T4A3.jpg","38","restless",0.5,0.2,0.3,0.653679220675927,"false"
"image-keyboard-response",318,368624,"0.0-3.102-1.102","wg1x2azrzgy7nov",134,"166.csv","","null","resources/maskTrios/BT4B.jpg","null","",NA,NA,NA,NA,""
"image-keyboard-response",319,369830,"0.0-3.102-2.102","wg1x2azrzgy7nov",134,"166.csv","","null","resources/images/fishbone.png","null","",NA,NA,NA,NA,""
"image-keyboard-response",320,370288,"0.0-3.103-0.103","wg1x2azrzgy7nov",134,"166.csv","","456.5","resources/trios/L1T2A3.jpg","38","restless",0.5,0.2,0.3,0.521924286896038,"false"
"image-keyboard-response",321,370695,"0.0-3.103-1.103","wg1x2azrzgy7nov",134,"166.csv","","null","resources/maskTrios/BT2B.jpg","null","",NA,NA,NA,NA,""
"image-keyboard-response",322,371897,"0.0-3.103-2.103","wg1x2azrzgy7nov",134,"166.csv","","null","resources/images/fishbone.png","null","",NA,NA,NA,NA,""
"image-keyboard-response",323,372308,"0.0-3.104-0.104","wg1x2azrzgy7nov",134,"166.csv","","409.6000000014901","resources/trios/L1T2A2.jpg","39","restless",0.5,0.2,0.3,0.652592554065633,"false"
"image-keyboard-response",324,372715,"0.0-3.104-1.104","wg1x2azrzgy7nov",134,"166.csv","","null","resources/maskTrios/BBA2.jpg","null","",NA,NA,NA,NA,""
"image-keyboard-response",325,373918,"0.0-3.104-2.104","wg1x2azrzgy7nov",134,"166.csv","","null","resources/images/fishbone.png","null","",NA,NA,NA,NA,""
"image-keyboard-response",326,374288,"0.0-3.105-0.105","wg1x2azrzgy7nov",134,"166.csv","","368.70000000298023","resources/trios/L1T4A3.jpg","37","restless",0.5,0.3,0.3,0.368386949019448,"true"
"image-keyboard-response",327,374690,"0.0-3.105-1.105","wg1x2azrzgy7nov",134,"166.csv","","null","resources/maskTrios/L1BB.jpg","null","",NA,NA,NA,NA,""
"image-keyboard-response",328,375896,"0.0-3.105-2.105","wg1x2azrzgy7nov",134,"166.csv","","null","resources/images/coin2.png","null","",NA,NA,NA,NA,""
"image-keyboard-response",329,376451,"0.0-3.106-0.106","wg1x2azrzgy7nov",134,"166.csv","","553.1000000014901","resources/trios/L1T4A3.jpg","37","restless",0.5,0.3,0.3,0.199377434324091,"true"
"image-keyboard-response",330,376858,"0.0-3.106-1.106","wg1x2azrzgy7nov",134,"166.csv","","null","resources/maskTrios/L1BB.jpg","null","",NA,NA,NA,NA,""
"image-keyboard-response",331,378064,"0.0-3.106-2.106","wg1x2azrzgy7nov",134,"166.csv","","null","resources/images/coin2.png","null","",NA,NA,NA,NA,""
"image-keyboard-response",332,378409,"0.0-3.107-0.107","wg1x2azrzgy7nov",134,"166.csv","","343.69999999552965","resources/trios/L1T2A2.jpg","37","restless",0.5,0.3,0.2,0.370823660304456,"true"
"image-keyboard-response",333,378816,"0.0-3.107-1.107","wg1x2azrzgy7nov",134,"166.csv","","null","resources/maskTrios/L1BB.jpg","null","",NA,NA,NA,NA,""
"image-keyboard-response",334,380023,"0.0-3.107-2.107","wg1x2azrzgy7nov",134,"166.csv","","null","resources/images/coin2.png","null","",NA,NA,NA,NA,""
"image-keyboard-response",335,380744,"0.0-3.108-0.108","wg1x2azrzgy7nov",134,"166.csv","","720.1000000014901","resources/trios/L1T4A3.jpg","37","restless",0.5,0.3,0.2,0.577719402055497,"false"
"image-keyboard-response",336,381151,"0.0-3.108-1.108","wg1x2azrzgy7nov",134,"166.csv","","null","resources/maskTrios/L1BB.jpg","null","",NA,NA,NA,NA,""
"image-keyboard-response",337,382356,"0.0-3.108-2.108","wg1x2azrzgy7nov",134,"166.csv","","null","resources/images/fishbone.png","null","",NA,NA,NA,NA,""
"image-keyboard-response",338,382967,"0.0-3.109-0.109","wg1x2azrzgy7nov",134,"166.csv","","609.4000000059605","resources/trios/L2T4A3.jpg","39","restless",0.5,0.3,0.2,0.189083509208401,"true"
"image-keyboard-response",339,383374,"0.0-3.109-1.109","wg1x2azrzgy7nov",134,"166.csv","","null","resources/maskTrios/BBA3.jpg","null","",NA,NA,NA,NA,""
"image-keyboard-response",340,384580,"0.0-3.109-2.109","wg1x2azrzgy7nov",134,"166.csv","","null","resources/images/coin2.png","null","",NA,NA,NA,NA,""
"image-keyboard-response",341,385041,"0.0-3.110-0.110","wg1x2azrzgy7nov",134,"166.csv","","459.1000000014901","resources/trios/L1T4A2.jpg","39","restless",0.5,0.3,0.2,0.484157578912855,"false"
"image-keyboard-response",342,385447,"0.0-3.110-1.110","wg1x2azrzgy7nov",134,"166.csv","","null","resources/maskTrios/BBA2.jpg","null","",NA,NA,NA,NA,""
"image-keyboard-response",343,386654,"0.0-3.110-2.110","wg1x2azrzgy7nov",134,"166.csv","","null","resources/images/fishbone.png","null","",NA,NA,NA,NA,""
"image-keyboard-response",344,386865,"0.0-3.111-0.111","wg1x2azrzgy7nov",134,"166.csv","","208.39999999850988","resources/trios/L1T4A2.jpg","38","restless",0.5,0.3,0.2,0.750633807122157,"false"
"image-keyboard-response",345,387272,"0.0-3.111-1.111","wg1x2azrzgy7nov",134,"166.csv","","null","resources/maskTrios/BT4B.jpg","null","",NA,NA,NA,NA,""
"image-keyboard-response",346,388476,"0.0-3.111-2.111","wg1x2azrzgy7nov",134,"166.csv","","null","resources/images/fishbone.png","null","",NA,NA,NA,NA,""
"image-keyboard-response",347,388784,"0.0-3.112-0.112","wg1x2azrzgy7nov",134,"166.csv","","307","resources/trios/L1T2A2.jpg","38","restless",0.4,0.3,0.2,0.413599795642708,"false"
"image-keyboard-response",348,389191,"0.0-3.112-1.112","wg1x2azrzgy7nov",134,"166.csv","","null","resources/maskTrios/BT2B.jpg","null","",NA,NA,NA,NA,""
"image-keyboard-response",349,390397,"0.0-3.112-2.112","wg1x2azrzgy7nov",134,"166.csv","","null","resources/images/fishbone.png","null","",NA,NA,NA,NA,""
"image-keyboard-response",350,400827,"0.0-3.113-0.113","wg1x2azrzgy7nov",134,"166.csv","","10428.5","resources/trios/L2T4A2.jpg","39","restless",0.4,0.3,0.2,0.685135033577461,"false"
"image-keyboard-response",351,401234,"0.0-3.113-1.113","wg1x2azrzgy7nov",134,"166.csv","","null","resources/maskTrios/BBA2.jpg","null","",NA,NA,NA,NA,""
"image-keyboard-response",352,402440,"0.0-3.113-2.113","wg1x2azrzgy7nov",134,"166.csv","","null","resources/images/fishbone.png","null","",NA,NA,NA,NA,""
"image-keyboard-response",353,402817,"0.0-3.114-0.114","wg1x2azrzgy7nov",134,"166.csv","","375.5","resources/trios/L1T4A3.jpg","39","restless",0.4,0.3,0.2,0.712985318992575,"false"
"image-keyboard-response",354,403223,"0.0-3.114-1.114","wg1x2azrzgy7nov",134,"166.csv","","null","resources/maskTrios/BBA3.jpg","null","",NA,NA,NA,NA,""
"image-keyboard-response",355,404429,"0.0-3.114-2.114","wg1x2azrzgy7nov",134,"166.csv","","null","resources/images/fishbone.png","null","",NA,NA,NA,NA,""
"image-keyboard-response",356,404765,"0.0-3.115-0.115","wg1x2azrzgy7nov",134,"166.csv","","334","resources/trios/L1T2A2.jpg","37","restless",0.4,0.3,0.2,0.952050266121484,"false"
"image-keyboard-response",357,405171,"0.0-3.115-1.115","wg1x2azrzgy7nov",134,"166.csv","","null","resources/maskTrios/L1BB.jpg","null","",NA,NA,NA,NA,""
"image-keyboard-response",358,406378,"0.0-3.115-2.115","wg1x2azrzgy7nov",134,"166.csv","","null","resources/images/fishbone.png","null","",NA,NA,NA,NA,""
"image-keyboard-response",359,406704,"0.0-3.116-0.116","wg1x2azrzgy7nov",134,"166.csv","","324.59999999403954","resources/trios/L1T4A3.jpg","37","restless",0.4,0.3,0.2,0.791015929192924,"false"
"image-keyboard-response",360,407110,"0.0-3.116-1.116","wg1x2azrzgy7nov",134,"166.csv","","null","resources/maskTrios/L1BB.jpg","null","",NA,NA,NA,NA,""
"image-keyboard-response",361,408317,"0.0-3.116-2.116","wg1x2azrzgy7nov",134,"166.csv","","null","resources/images/fishbone.png","null","",NA,NA,NA,NA,""
"image-keyboard-response",362,408610,"0.0-3.117-0.117","wg1x2azrzgy7nov",134,"166.csv","","292.3999999985099","resources/trios/L2T2A2.jpg","38","restless",0.4,0.3,0.2,0.668552134106894,"false"
"image-keyboard-response",363,409017,"0.0-3.117-1.117","wg1x2azrzgy7nov",134,"166.csv","","null","resources/maskTrios/BT2B.jpg","null","",NA,NA,NA,NA,""
"image-keyboard-response",364,410219,"0.0-3.117-2.117","wg1x2azrzgy7nov",134,"166.csv","","null","resources/images/fishbone.png","null","",NA,NA,NA,NA,""
"image-keyboard-response",365,410455,"0.0-3.118-0.118","wg1x2azrzgy7nov",134,"166.csv","","234.89999999850988","resources/trios/L2T4A3.jpg","38","restless",0.4,0.3,0.2,0.0585240716239566,"true"
"image-keyboard-response",366,410861,"0.0-3.118-1.118","wg1x2azrzgy7nov",134,"166.csv","","null","resources/maskTrios/BT4B.jpg","null","",NA,NA,NA,NA,""
"image-keyboard-response",367,412067,"0.0-3.118-2.118","wg1x2azrzgy7nov",134,"166.csv","","null","resources/images/coin2.png","null","",NA,NA,NA,NA,""
"image-keyboard-response",368,413420,"0.0-3.119-0.119","wg1x2azrzgy7nov",134,"166.csv","","1350.9000000059605","resources/trios/L2T4A2.jpg","37","restless",0.4,0.3,0.2,0.483342113770025,"false"
"image-keyboard-response",369,413823,"0.0-3.119-1.119","wg1x2azrzgy7nov",134,"166.csv","","null","resources/maskTrios/L2BB.jpg","null","",NA,NA,NA,NA,""
"image-keyboard-response",370,415029,"0.0-3.119-2.119","wg1x2azrzgy7nov",134,"166.csv","","null","resources/images/fishbone.png","null","",NA,NA,NA,NA,""
"image-keyboard-response",371,415579,"0.0-3.120-0.120","wg1x2azrzgy7nov",134,"166.csv","","548.5999999940395","resources/trios/L2T2A2.jpg","38","restless",0.4,0.3,0.2,0.291519715659762,"true"
"image-keyboard-response",372,415986,"0.0-3.120-1.120","wg1x2azrzgy7nov",134,"166.csv","","null","resources/maskTrios/BT2B.jpg","null","",NA,NA,NA,NA,""
"image-keyboard-response",373,417190,"0.0-3.120-2.120","wg1x2azrzgy7nov",134,"166.csv","","null","resources/images/coin2.png","null","",NA,NA,NA,NA,""
"image-keyboard-response",374,417795,"0.0-3.121-0.121","wg1x2azrzgy7nov",134,"166.csv","","604.6000000014901","resources/trios/L2T4A3.jpg","39","restless",0.4,0.3,0.2,0.796426577099976,"false"
"image-keyboard-response",375,418198,"0.0-3.121-1.121","wg1x2azrzgy7nov",134,"166.csv","","null","resources/maskTrios/BBA3.jpg","null","",NA,NA,NA,NA,""
"image-keyboard-response",376,419404,"0.0-3.121-2.121","wg1x2azrzgy7nov",134,"166.csv","","null","resources/images/fishbone.png","null","",NA,NA,NA,NA,""
"image-keyboard-response",377,419762,"0.0-3.122-0.122","wg1x2azrzgy7nov",134,"166.csv","","356.8999999985099","resources/trios/L2T4A2.jpg","38","restless",0.4,0.4,0.3,0.502919637026494,"false"
"image-keyboard-response",378,420169,"0.0-3.122-1.122","wg1x2azrzgy7nov",134,"166.csv","","null","resources/maskTrios/BT4B.jpg","null","",NA,NA,NA,NA,""
"image-keyboard-response",379,421375,"0.0-3.122-2.122","wg1x2azrzgy7nov",134,"166.csv","","null","resources/images/fishbone.png","null","",NA,NA,NA,NA,""
"image-keyboard-response",380,421705,"0.0-3.123-0.123","wg1x2azrzgy7nov",134,"166.csv","","328.8999999985099","resources/trios/L2T2A2.jpg","38","restless",0.4,0.4,0.3,0.0432787199933002,"true"
"image-keyboard-response",381,422111,"0.0-3.123-1.123","wg1x2azrzgy7nov",134,"166.csv","","null","resources/maskTrios/BT2B.jpg","null","",NA,NA,NA,NA,""
"image-keyboard-response",382,423318,"0.0-3.123-2.123","wg1x2azrzgy7nov",134,"166.csv","","null","resources/images/coin2.png","null","",NA,NA,NA,NA,""
"image-keyboard-response",383,425476,"0.0-3.124-0.124","wg1x2azrzgy7nov",134,"166.csv","","2156.2999999970198","resources/trios/L2T4A2.jpg","37","restless",0.4,0.4,0.3,0.352859585474863,"true"
"image-keyboard-response",384,425877,"0.0-3.124-1.124","wg1x2azrzgy7nov",134,"166.csv","","null","resources/maskTrios/L2BB.jpg","null","",NA,NA,NA,NA,""
"image-keyboard-response",385,427084,"0.0-3.124-2.124","wg1x2azrzgy7nov",134,"166.csv","","null","resources/images/coin2.png","null","",NA,NA,NA,NA,""
"image-keyboard-response",386,427585,"0.0-3.125-0.125","wg1x2azrzgy7nov",134,"166.csv","","500.30000000447035","resources/trios/L1T2A2.jpg","38","restless",0.4,0.4,0.3,0.922546688252955,"false"
"image-keyboard-response",387,427991,"0.0-3.125-1.125","wg1x2azrzgy7nov",134,"166.csv","","null","resources/maskTrios/BT2B.jpg","null","",NA,NA,NA,NA,""
"image-keyboard-response",388,429194,"0.0-3.125-2.125","wg1x2azrzgy7nov",134,"166.csv","","null","resources/images/fishbone.png","null","",NA,NA,NA,NA,""
"image-keyboard-response",389,430294,"0.0-3.126-0.126","wg1x2azrzgy7nov",134,"166.csv","","1098.8000000044703","resources/trios/L2T4A3.jpg","37","restless",0.5,0.4,0.3,0.555455769214657,"false"
"image-keyboard-response",390,430698,"0.0-3.126-1.126","wg1x2azrzgy7nov",134,"166.csv","","null","resources/maskTrios/L2BB.jpg","null","",NA,NA,NA,NA,""
"image-keyboard-response",391,431904,"0.0-3.126-2.126","wg1x2azrzgy7nov",134,"166.csv","","null","resources/images/fishbone.png","null","",NA,NA,NA,NA,""
"image-keyboard-response",392,432589,"0.0-3.127-0.127","wg1x2azrzgy7nov",134,"166.csv","","683.7999999970198","resources/trios/L2T4A3.jpg","39","restless",0.5,0.4,0.3,0.494098201619686,"false"
"image-keyboard-response",393,432995,"0.0-3.127-1.127","wg1x2azrzgy7nov",134,"166.csv","","null","resources/maskTrios/BBA3.jpg","null","",NA,NA,NA,NA,""
"image-keyboard-response",394,434201,"0.0-3.127-2.127","wg1x2azrzgy7nov",134,"166.csv","","null","resources/images/fishbone.png","null","",NA,NA,NA,NA,""
"image-keyboard-response",395,434781,"0.0-3.128-0.128","wg1x2azrzgy7nov",134,"166.csv","","578.2000000029802","resources/trios/L2T2A2.jpg","39","restless",0.5,0.4,0.3,0.931178828741673,"false"
"image-keyboard-response",396,435187,"0.0-3.128-1.128","wg1x2azrzgy7nov",134,"166.csv","","null","resources/maskTrios/BBA2.jpg","null","",NA,NA,NA,NA,""
"image-keyboard-response",397,436394,"0.0-3.128-2.128","wg1x2azrzgy7nov",134,"166.csv","","null","resources/images/fishbone.png","null","",NA,NA,NA,NA,""
"image-keyboard-response",398,436617,"0.0-3.129-0.129","wg1x2azrzgy7nov",134,"166.csv","","222.29999999701977","resources/trios/L2T4A3.jpg","37","restless",0.6,0.4,0.3,0.603482810691808,"false"
"image-keyboard-response",399,437024,"0.0-3.129-1.129","wg1x2azrzgy7nov",134,"166.csv","","null","resources/maskTrios/L2BB.jpg","null","",NA,NA,NA,NA,""
"image-keyboard-response",400,438230,"0.0-3.129-2.129","wg1x2azrzgy7nov",134,"166.csv","","null","resources/images/fishbone.png","null","",NA,NA,NA,NA,""
"image-keyboard-response",401,454971,"0.0-3.130-0.130","wg1x2azrzgy7nov",134,"166.csv","","16739.60000000149","resources/trios/L1T4A2.jpg","37","restless",0.6,0.4,0.3,0.901885759961493,"false"
"image-keyboard-response",402,455376,"0.0-3.130-1.130","wg1x2azrzgy7nov",134,"166.csv","","null","resources/maskTrios/L1BB.jpg","null","",NA,NA,NA,NA,""
"image-keyboard-response",403,456582,"0.0-3.130-2.130","wg1x2azrzgy7nov",134,"166.csv","","null","resources/images/fishbone.png","null","",NA,NA,NA,NA,""
"image-keyboard-response",404,457128,"0.0-3.131-0.131","wg1x2azrzgy7nov",134,"166.csv","","544.8999999985099","resources/trios/L1T2A3.jpg","39","restless",0.6,0.4,0.3,0.881833208165663,"false"
"image-keyboard-response",405,457535,"0.0-3.131-1.131","wg1x2azrzgy7nov",134,"166.csv","","null","resources/maskTrios/BBA3.jpg","null","",NA,NA,NA,NA,""
"image-keyboard-response",406,458741,"0.0-3.131-2.131","wg1x2azrzgy7nov",134,"166.csv","","null","resources/images/fishbone.png","null","",NA,NA,NA,NA,""
"image-keyboard-response",407,459220,"0.0-3.132-0.132","wg1x2azrzgy7nov",134,"166.csv","","477.69999999552965","resources/trios/L2T2A2.jpg","38","restless",0.6,0.4,0.3,0.00609723179499722,"true"
"image-keyboard-response",408,459626,"0.0-3.132-1.132","wg1x2azrzgy7nov",134,"166.csv","","null","resources/maskTrios/BT2B.jpg","null","",NA,NA,NA,NA,""
"image-keyboard-response",409,460830,"0.0-3.132-2.132","wg1x2azrzgy7nov",134,"166.csv","","null","resources/images/coin2.png","null","",NA,NA,NA,NA,""
"image-keyboard-response",410,461747,"0.0-3.133-0.133","wg1x2azrzgy7nov",134,"166.csv","","914.5","resources/trios/L2T4A3.jpg","38","restless",0.6,0.4,0.3,0.531836659907623,"false"
"image-keyboard-response",411,462153,"0.0-3.133-1.133","wg1x2azrzgy7nov",134,"166.csv","","null","resources/maskTrios/BT4B.jpg","null","",NA,NA,NA,NA,""
"image-keyboard-response",412,463354,"0.0-3.133-2.133","wg1x2azrzgy7nov",134,"166.csv","","null","resources/images/fishbone.png","null","",NA,NA,NA,NA,""
"image-keyboard-response",413,463719,"0.0-3.134-0.134","wg1x2azrzgy7nov",134,"166.csv","","363.8999999985099","resources/trios/L1T2A3.jpg","37","restless",0.6,0.3,0.3,0.645760198690662,"false"
"image-keyboard-response",414,464126,"0.0-3.134-1.134","wg1x2azrzgy7nov",134,"166.csv","","null","resources/maskTrios/L1BB.jpg","null","",NA,NA,NA,NA,""
"image-keyboard-response",415,465332,"0.0-3.134-2.134","wg1x2azrzgy7nov",134,"166.csv","","null","resources/images/fishbone.png","null","",NA,NA,NA,NA,""
"image-keyboard-response",416,466080,"0.0-3.135-0.135","wg1x2azrzgy7nov",134,"166.csv","","747.1000000014901","resources/trios/L1T2A3.jpg","38","restless",0.6,0.3,0.3,0.731133586447527,"false"
"image-keyboard-response",417,466486,"0.0-3.135-1.135","wg1x2azrzgy7nov",134,"166.csv","","null","resources/maskTrios/BT2B.jpg","null","",NA,NA,NA,NA,""
"image-keyboard-response",418,467692,"0.0-3.135-2.135","wg1x2azrzgy7nov",134,"166.csv","","null","resources/images/fishbone.png","null","",NA,NA,NA,NA,""
"image-keyboard-response",419,468431,"0.0-3.136-0.136","wg1x2azrzgy7nov",134,"166.csv","","737.7999999970198","resources/trios/L2T4A3.jpg","39","restless",0.6,0.3,0.3,0.446112752180197,"false"
"image-keyboard-response",420,468838,"0.0-3.136-1.136","wg1x2azrzgy7nov",134,"166.csv","","null","resources/maskTrios/BBA3.jpg","null","",NA,NA,NA,NA,""
"image-keyboard-response",421,470040,"0.0-3.136-2.136","wg1x2azrzgy7nov",134,"166.csv","","null","resources/images/fishbone.png","null","",NA,NA,NA,NA,""
"image-keyboard-response",422,470458,"0.0-3.137-0.137","wg1x2azrzgy7nov",134,"166.csv","","417.3999999985099","resources/trios/L2T4A2.jpg","38","restless",0.6,0.3,0.3,0.866565973059455,"false"
"image-keyboard-response",423,470862,"0.0-3.137-1.137","wg1x2azrzgy7nov",134,"166.csv","","null","resources/maskTrios/BT4B.jpg","null","",NA,NA,NA,NA,""
"image-keyboard-response",424,472066,"0.0-3.137-2.137","wg1x2azrzgy7nov",134,"166.csv","","null","resources/images/fishbone.png","null","",NA,NA,NA,NA,""
"image-keyboard-response",425,472603,"0.0-3.138-0.138","wg1x2azrzgy7nov",134,"166.csv","","535.3000000044703","resources/trios/L1T2A3.jpg","37","restless",0.6,0.3,0.3,0.959059735880447,"false"
"image-keyboard-response",426,473010,"0.0-3.138-1.138","wg1x2azrzgy7nov",134,"166.csv","","null","resources/maskTrios/L1BB.jpg","null","",NA,NA,NA,NA,""
"image-keyboard-response",427,474216,"0.0-3.138-2.138","wg1x2azrzgy7nov",134,"166.csv","","null","resources/images/fishbone.png","null","",NA,NA,NA,NA,""
"image-keyboard-response",428,475009,"0.0-3.139-0.139","wg1x2azrzgy7nov",134,"166.csv","","791.5","resources/trios/L1T4A2.jpg","38","restless",0.6,0.3,0.3,0.0575210543612943,"true"
"image-keyboard-response",429,475416,"0.0-3.139-1.139","wg1x2azrzgy7nov",134,"166.csv","","null","resources/maskTrios/BT4B.jpg","null","",NA,NA,NA,NA,""
"image-keyboard-response",430,476622,"0.0-3.139-2.139","wg1x2azrzgy7nov",134,"166.csv","","null","resources/images/coin2.png","null","",NA,NA,NA,NA,""
"image-keyboard-response",431,477066,"0.0-3.140-0.140","wg1x2azrzgy7nov",134,"166.csv","","443.09999999403954","resources/trios/L1T4A3.jpg","38","restless",0.6,0.3,0.3,0.0892570373080777,"true"
"image-keyboard-response",432,477468,"0.0-3.140-1.140","wg1x2azrzgy7nov",134,"166.csv","","null","resources/maskTrios/BT4B.jpg","null","",NA,NA,NA,NA,""
"image-keyboard-response",433,478674,"0.0-3.140-2.140","wg1x2azrzgy7nov",134,"166.csv","","null","resources/images/coin2.png","null","",NA,NA,NA,NA,""
"image-keyboard-response",434,479276,"0.0-3.141-0.141","wg1x2azrzgy7nov",134,"166.csv","","600.8999999985099","resources/trios/L1T4A2.jpg","38","restless",0.6,0.3,0.3,0.649042113083014,"false"
"image-keyboard-response",435,479679,"0.0-3.141-1.141","wg1x2azrzgy7nov",134,"166.csv","","null","resources/maskTrios/BT4B.jpg","null","",NA,NA,NA,NA,""
"image-keyboard-response",436,480885,"0.0-3.141-2.141","wg1x2azrzgy7nov",134,"166.csv","","null","resources/images/fishbone.png","null","",NA,NA,NA,NA,""
"image-keyboard-response",437,481544,"0.0-3.142-0.142","wg1x2azrzgy7nov",134,"166.csv","","657.3000000044703","resources/trios/L2T4A3.jpg","39","restless",0.6,0.4,0.3,0.696025948072291,"false"
"image-keyboard-response",438,481950,"0.0-3.142-1.142","wg1x2azrzgy7nov",134,"166.csv","","null","resources/maskTrios/BBA3.jpg","null","",NA,NA,NA,NA,""
"image-keyboard-response",439,483153,"0.0-3.142-2.142","wg1x2azrzgy7nov",134,"166.csv","","null","resources/images/fishbone.png","null","",NA,NA,NA,NA,""
"image-keyboard-response",440,483540,"0.0-3.143-0.143","wg1x2azrzgy7nov",134,"166.csv","","385.30000000447035","resources/trios/L2T2A2.jpg","37","restless",0.6,0.4,0.3,0.110593443051892,"true"
"image-keyboard-response",441,483946,"0.0-3.143-1.143","wg1x2azrzgy7nov",134,"166.csv","","null","resources/maskTrios/L2BB.jpg","null","",NA,NA,NA,NA,""
"image-keyboard-response",442,485148,"0.0-3.143-2.143","wg1x2azrzgy7nov",134,"166.csv","","null","resources/images/coin2.png","null","",NA,NA,NA,NA,""
"image-keyboard-response",443,520070,"0.0-3.144-0.144","wg1x2azrzgy7nov",134,"166.csv","","34919.80000000447","resources/trios/L2T2A2.jpg","39","restless",0.6,0.4,0.3,0.381529662929987,"false"
"image-keyboard-response",444,520473,"0.0-3.144-1.144","wg1x2azrzgy7nov",134,"166.csv","","null","resources/maskTrios/BBA2.jpg","null","",NA,NA,NA,NA,""
"image-keyboard-response",445,521679,"0.0-3.144-2.144","wg1x2azrzgy7nov",134,"166.csv","","null","resources/images/fishbone.png","null","",NA,NA,NA,NA,""
"image-keyboard-response",446,523140,"0.0-3.145-0.145","wg1x2azrzgy7nov",134,"166.csv","","1460.1000000014901","resources/trios/L2T4A3.jpg","38","restless",0.6,0.4,0.3,0.174913713888207,"true"
"image-keyboard-response",447,523547,"0.0-3.145-1.145","wg1x2azrzgy7nov",134,"166.csv","","null","resources/maskTrios/BT4B.jpg","null","",NA,NA,NA,NA,""
"image-keyboard-response",448,524751,"0.0-3.145-2.145","wg1x2azrzgy7nov",134,"166.csv","","null","resources/images/coin2.png","null","",NA,NA,NA,NA,""
"image-keyboard-response",449,526531,"0.0-3.146-0.146","wg1x2azrzgy7nov",134,"166.csv","","1778.6000000014901","resources/trios/L1T4A3.jpg","38","restless",0.6,0.4,0.3,0.39515090463115,"true"
"image-keyboard-response",450,526938,"0.0-3.146-1.146","wg1x2azrzgy7nov",134,"166.csv","","null","resources/maskTrios/BT4B.jpg","null","",NA,NA,NA,NA,""
"image-keyboard-response",451,528144,"0.0-3.146-2.146","wg1x2azrzgy7nov",134,"166.csv","","null","resources/images/coin2.png","null","",NA,NA,NA,NA,""
"image-keyboard-response",452,528691,"0.0-3.147-0.147","wg1x2azrzgy7nov",134,"166.csv","","546.0999999940395","resources/trios/L1T2A3.jpg","38","restless",0.6,0.4,0.3,0.0174459688136093,"true"
"image-keyboard-response",453,529098,"0.0-3.147-1.147","wg1x2azrzgy7nov",134,"166.csv","","null","resources/maskTrios/BT2B.jpg","null","",NA,NA,NA,NA,""
"image-keyboard-response",454,530304,"0.0-3.147-2.147","wg1x2azrzgy7nov",134,"166.csv","","null","resources/images/coin2.png","null","",NA,NA,NA,NA,""
"image-keyboard-response",455,530726,"0.0-3.148-0.148","wg1x2azrzgy7nov",134,"166.csv","","419.79999999701977","resources/trios/L1T2A3.jpg","38","restless",0.6,0.4,0.3,0.960877755651612,"false"
"image-keyboard-response",456,531130,"0.0-3.148-1.148","wg1x2azrzgy7nov",134,"166.csv","","null","resources/maskTrios/BT2B.jpg","null","",NA,NA,NA,NA,""
"image-keyboard-response",457,532337,"0.0-3.148-2.148","wg1x2azrzgy7nov",134,"166.csv","","null","resources/images/fishbone.png","null","",NA,NA,NA,NA,""
"image-keyboard-response",458,532856,"0.0-3.149-0.149","wg1x2azrzgy7nov",134,"166.csv","","518.0999999940395","resources/trios/L2T2A2.jpg","38","restless",0.6,0.4,0.4,0.678647863084666,"false"
"image-keyboard-response",459,533262,"0.0-3.149-1.149","wg1x2azrzgy7nov",134,"166.csv","","null","resources/maskTrios/BT2B.jpg","null","",NA,NA,NA,NA,""
"image-keyboard-response",460,534469,"0.0-3.149-2.149","wg1x2azrzgy7nov",134,"166.csv","","null","resources/images/fishbone.png","null","",NA,NA,NA,NA,""
"image-keyboard-response",461,534883,"0.0-3.150-0.150","wg1x2azrzgy7nov",134,"166.csv","","413.19999999552965","resources/trios/L2T2A3.jpg","37","restless",0.7,0.5,0.4,0.0896095309089511,"true"
"image-keyboard-response",462,535284,"0.0-3.150-1.150","wg1x2azrzgy7nov",134,"166.csv","","null","resources/maskTrios/L2BB.jpg","null","",NA,NA,NA,NA,""
"image-keyboard-response",463,536491,"0.0-3.150-2.150","wg1x2azrzgy7nov",134,"166.csv","","null","resources/images/coin2.png","null","",NA,NA,NA,NA,""
"image-keyboard-response",464,536834,"0.0-3.151-0.151","wg1x2azrzgy7nov",134,"166.csv","","342","resources/trios/L1T4A2.jpg","37","restless",0.7,0.5,0.4,0.806898550097353,"false"
"image-keyboard-response",465,537241,"0.0-3.151-1.151","wg1x2azrzgy7nov",134,"166.csv","","null","resources/maskTrios/L1BB.jpg","null","",NA,NA,NA,NA,""
"image-keyboard-response",466,538447,"0.0-3.151-2.151","wg1x2azrzgy7nov",134,"166.csv","","null","resources/images/fishbone.png","null","",NA,NA,NA,NA,""
"image-keyboard-response",467,538820,"0.0-3.152-0.152","wg1x2azrzgy7nov",134,"166.csv","","372","resources/trios/L1T2A3.jpg","39","restless",0.7,0.5,0.4,0.365093901696214,"true"
"image-keyboard-response",468,539223,"0.0-3.152-1.152","wg1x2azrzgy7nov",134,"166.csv","","null","resources/maskTrios/BBA3.jpg","null","",NA,NA,NA,NA,""
"image-keyboard-response",469,540427,"0.0-3.152-2.152","wg1x2azrzgy7nov",134,"166.csv","","null","resources/images/coin2.png","null","",NA,NA,NA,NA,""
"image-keyboard-response",470,540925,"0.0-3.153-0.153","wg1x2azrzgy7nov",134,"166.csv","","497","resources/trios/L1T4A3.jpg","39","restless",0.7,0.5,0.4,0.87225482595705,"false"
"image-keyboard-response",471,541332,"0.0-3.153-1.153","wg1x2azrzgy7nov",134,"166.csv","","null","resources/maskTrios/BBA3.jpg","null","",NA,NA,NA,NA,""
"image-keyboard-response",472,542534,"0.0-3.153-2.153","wg1x2azrzgy7nov",134,"166.csv","","null","resources/images/fishbone.png","null","",NA,NA,NA,NA,""
"image-keyboard-response",473,543055,"0.0-3.154-0.154","wg1x2azrzgy7nov",134,"166.csv","","519.8000000044703","resources/trios/L2T4A3.jpg","38","restless",0.7,0.5,0.4,0.900255189629736,"false"
"image-keyboard-response",474,543458,"0.0-3.154-1.154","wg1x2azrzgy7nov",134,"166.csv","","null","resources/maskTrios/BT4B.jpg","null","",NA,NA,NA,NA,""
"image-keyboard-response",475,544663,"0.0-3.154-2.154","wg1x2azrzgy7nov",134,"166.csv","","null","resources/images/fishbone.png","null","",NA,NA,NA,NA,""
"image-keyboard-response",476,545085,"0.0-3.155-0.155","wg1x2azrzgy7nov",134,"166.csv","","421","resources/trios/L1T4A2.jpg","37","restless",0.7,0.5,0.4,0.558226354184141,"true"
"image-keyboard-response",477,545491,"0.0-3.155-1.155","wg1x2azrzgy7nov",134,"166.csv","","null","resources/maskTrios/L1BB.jpg","null","",NA,NA,NA,NA,""
"image-keyboard-response",478,546697,"0.0-3.155-2.155","wg1x2azrzgy7nov",134,"166.csv","","null","resources/images/coin2.png","null","",NA,NA,NA,NA,""
"image-keyboard-response",479,547268,"0.0-3.156-0.156","wg1x2azrzgy7nov",134,"166.csv","","569.6000000014901","resources/trios/L2T4A3.jpg","37","restless",0.7,0.5,0.4,0.70919452936389,"false"
"image-keyboard-response",480,547675,"0.0-3.156-1.156","wg1x2azrzgy7nov",134,"166.csv","","null","resources/maskTrios/L2BB.jpg","null","",NA,NA,NA,NA,""
"image-keyboard-response",481,548881,"0.0-3.156-2.156","wg1x2azrzgy7nov",134,"166.csv","","null","resources/images/fishbone.png","null","",NA,NA,NA,NA,""
"image-keyboard-response",482,549255,"0.0-3.157-0.157","wg1x2azrzgy7nov",134,"166.csv","","372.70000000298023","resources/trios/L1T4A2.jpg","39","restless",0.7,0.5,0.4,0.439414935949645,"false"
"image-keyboard-response",483,549662,"0.0-3.157-1.157","wg1x2azrzgy7nov",134,"166.csv","","null","resources/maskTrios/BBA2.jpg","null","",NA,NA,NA,NA,""
"image-keyboard-response",484,550868,"0.0-3.157-2.157","wg1x2azrzgy7nov",134,"166.csv","","null","resources/images/fishbone.png","null","",NA,NA,NA,NA,""
"image-keyboard-response",485,551308,"0.0-3.158-0.158","wg1x2azrzgy7nov",134,"166.csv","","439.19999999552965","resources/trios/L2T2A2.jpg","39","restless",0.7,0.5,0.4,0.83801520391774,"false"
"image-keyboard-response",486,551715,"0.0-3.158-1.158","wg1x2azrzgy7nov",134,"166.csv","","null","resources/maskTrios/BBA2.jpg","null","",NA,NA,NA,NA,""
"image-keyboard-response",487,552920,"0.0-3.158-2.158","wg1x2azrzgy7nov",134,"166.csv","","null","resources/images/fishbone.png","null","",NA,NA,NA,NA,""
"image-keyboard-response",488,553277,"0.0-3.159-0.159","wg1x2azrzgy7nov",134,"166.csv","","355.6000000014901","resources/trios/L1T2A3.jpg","39","restless",0.7,0.6,0.4,0.33208209978877,"true"
"image-keyboard-response",489,553683,"0.0-3.159-1.159","wg1x2azrzgy7nov",134,"166.csv","","null","resources/maskTrios/BBA3.jpg","null","",NA,NA,NA,NA,""
"image-keyboard-response",490,554887,"0.0-3.159-2.159","wg1x2azrzgy7nov",134,"166.csv","","null","resources/images/coin2.png","null","",NA,NA,NA,NA,""
"image-keyboard-response",491,560342,"0.0-3.160-0.160","wg1x2azrzgy7nov",134,"166.csv","","5453.10000000149","resources/trios/L2T2A3.jpg","39","restless",0.7,0.5,0.4,0.00296781626662712,"true"
"image-keyboard-response",492,560748,"0.0-3.160-1.160","wg1x2azrzgy7nov",134,"166.csv","","null","resources/maskTrios/BBA3.jpg","null","",NA,NA,NA,NA,""
"image-keyboard-response",493,561953,"0.0-3.160-2.160","wg1x2azrzgy7nov",134,"166.csv","","null","resources/images/coin2.png","null","",NA,NA,NA,NA,""
"image-keyboard-response",494,562766,"0.0-3.161-0.161","wg1x2azrzgy7nov",134,"166.csv","","811.5999999940395","resources/trios/L2T2A3.jpg","39","restless",0.8,0.5,0.4,0.869404712320288,"false"
"image-keyboard-response",495,563173,"0.0-3.161-1.161","wg1x2azrzgy7nov",134,"166.csv","","null","resources/maskTrios/BBA3.jpg","null","",NA,NA,NA,NA,""
"image-keyboard-response",496,564377,"0.0-3.161-2.161","wg1x2azrzgy7nov",134,"166.csv","","null","resources/images/fishbone.png","null","",NA,NA,NA,NA,""
"image-keyboard-response",497,565012,"0.0-3.162-0.162","wg1x2azrzgy7nov",134,"166.csv","","634.2999999970198","resources/trios/L2T2A3.jpg","38","restless",0.8,0.5,0.4,0.664735077778113,"false"
"image-keyboard-response",498,565419,"0.0-3.162-1.162","wg1x2azrzgy7nov",134,"166.csv","","null","resources/maskTrios/BT2B.jpg","null","",NA,NA,NA,NA,""
"image-keyboard-response",499,566625,"0.0-3.162-2.162","wg1x2azrzgy7nov",134,"166.csv","","null","resources/images/fishbone.png","null","",NA,NA,NA,NA,""
"image-keyboard-response",500,567678,"0.0-3.163-0.163","wg1x2azrzgy7nov",134,"166.csv","","1051.1000000014901","resources/trios/L2T4A2.jpg","37","restless",0.8,0.5,0.4,0.788357079256326,"true"
"image-keyboard-response",501,568079,"0.0-3.163-1.163","wg1x2azrzgy7nov",134,"166.csv","","null","resources/maskTrios/L2BB.jpg","null","",NA,NA,NA,NA,""
"image-keyboard-response",502,569286,"0.0-3.163-2.163","wg1x2azrzgy7nov",134,"166.csv","","null","resources/images/coin2.png","null","",NA,NA,NA,NA,""
"image-keyboard-response",503,569970,"0.0-3.164-0.164","wg1x2azrzgy7nov",134,"166.csv","","683.5","resources/trios/L1T2A2.jpg","37","restless",0.7,0.5,0.4,0.406024171210588,"true"
"image-keyboard-response",504,570377,"0.0-3.164-1.164","wg1x2azrzgy7nov",134,"166.csv","","null","resources/maskTrios/L1BB.jpg","null","",NA,NA,NA,NA,""
"image-keyboard-response",505,571583,"0.0-3.164-2.164","wg1x2azrzgy7nov",134,"166.csv","","null","resources/images/coin2.png","null","",NA,NA,NA,NA,""
"image-keyboard-response",506,572185,"0.0-3.165-0.165","wg1x2azrzgy7nov",134,"166.csv","","600.6000000014901","resources/trios/L1T4A2.jpg","37","restless",0.7,0.5,0.4,0.704220858109598,"false"
"image-keyboard-response",507,572591,"0.0-3.165-1.165","wg1x2azrzgy7nov",134,"166.csv","","null","resources/maskTrios/L1BB.jpg","null","",NA,NA,NA,NA,""
"image-keyboard-response",508,573795,"0.0-3.165-2.165","wg1x2azrzgy7nov",134,"166.csv","","null","resources/images/fishbone.png","null","",NA,NA,NA,NA,""
"image-keyboard-response",509,598963,"0.0-3.166-0.166","wg1x2azrzgy7nov",134,"166.csv","","25165.70000000298","resources/trios/L2T2A2.jpg","39","restless",0.7,0.5,0.4,0.629650438298002,"false"
"image-keyboard-response",510,599369,"0.0-3.166-1.166","wg1x2azrzgy7nov",134,"166.csv","","null","resources/maskTrios/BBA2.jpg","null","",NA,NA,NA,NA,""
"image-keyboard-response",511,600575,"0.0-3.166-2.166","wg1x2azrzgy7nov",134,"166.csv","","null","resources/images/fishbone.png","null","",NA,NA,NA,NA,""
"image-keyboard-response",512,601243,"0.0-3.167-0.167","wg1x2azrzgy7nov",134,"166.csv","","666.2999999970198","resources/trios/L1T4A3.jpg","38","restless",0.6,0.5,0.4,0.573128871646121,"false"
"image-keyboard-response",513,601649,"0.0-3.167-1.167","wg1x2azrzgy7nov",134,"166.csv","","null","resources/maskTrios/BT4B.jpg","null","",NA,NA,NA,NA,""
"image-keyboard-response",514,602851,"0.0-3.167-2.167","wg1x2azrzgy7nov",134,"166.csv","","null","resources/images/fishbone.png","null","",NA,NA,NA,NA,""
"image-keyboard-response",515,603299,"0.0-3.168-0.168","wg1x2azrzgy7nov",134,"166.csv","","446.3999999985099","resources/trios/L2T2A2.jpg","37","restless",0.6,0.5,0.4,0.649627630427041,"false"
"image-keyboard-response",516,603705,"0.0-3.168-1.168","wg1x2azrzgy7nov",134,"166.csv","","null","resources/maskTrios/L2BB.jpg","null","",NA,NA,NA,NA,""
"image-keyboard-response",517,604911,"0.0-3.168-2.168","wg1x2azrzgy7nov",134,"166.csv","","null","resources/images/fishbone.png","null","",NA,NA,NA,NA,""
"image-keyboard-response",518,605994,"0.0-3.169-0.169","wg1x2azrzgy7nov",134,"166.csv","","1081.9000000059605","resources/trios/L1T4A2.jpg","38","restless",0.6,0.5,0.4,0.97447289971997,"false"
"image-keyboard-response",519,606398,"0.0-3.169-1.169","wg1x2azrzgy7nov",134,"166.csv","","null","resources/maskTrios/BT4B.jpg","null","",NA,NA,NA,NA,""
"image-keyboard-response",520,607605,"0.0-3.169-2.169","wg1x2azrzgy7nov",134,"166.csv","","null","resources/images/fishbone.png","null","",NA,NA,NA,NA,""
"image-keyboard-response",521,608104,"0.0-3.170-0.170","wg1x2azrzgy7nov",134,"166.csv","","497.80000000447035","resources/trios/L1T4A2.jpg","38","restless",0.6,0.5,0.4,0.530523428518375,"false"
"image-keyboard-response",522,608506,"0.0-3.170-1.170","wg1x2azrzgy7nov",134,"166.csv","","null","resources/maskTrios/BT4B.jpg","null","",NA,NA,NA,NA,""
"image-keyboard-response",523,609712,"0.0-3.170-2.170","wg1x2azrzgy7nov",134,"166.csv","","null","resources/images/fishbone.png","null","",NA,NA,NA,NA,""
"image-keyboard-response",524,610779,"0.0-3.171-0.171","wg1x2azrzgy7nov",134,"166.csv","","1065.2000000029802","resources/trios/L2T4A2.jpg","37","restless",0.6,0.5,0.4,0.972652142526577,"false"
"image-keyboard-response",525,611182,"0.0-3.171-1.171","wg1x2azrzgy7nov",134,"166.csv","","null","resources/maskTrios/L2BB.jpg","null","",NA,NA,NA,NA,""
"image-keyboard-response",526,612388,"0.0-3.171-2.171","wg1x2azrzgy7nov",134,"166.csv","","null","resources/images/fishbone.png","null","",NA,NA,NA,NA,""
"image-keyboard-response",527,613351,"0.0-3.172-0.172","wg1x2azrzgy7nov",134,"166.csv","","961.3999999985099","resources/trios/L2T4A3.jpg","37","restless",0.5,0.5,0.4,0.066825055805418,"true"
"image-keyboard-response",528,613757,"0.0-3.172-1.172","wg1x2azrzgy7nov",134,"166.csv","","null","resources/maskTrios/L2BB.jpg","null","",NA,NA,NA,NA,""
"image-keyboard-response",529,614960,"0.0-3.172-2.172","wg1x2azrzgy7nov",134,"166.csv","","null","resources/images/coin2.png","null","",NA,NA,NA,NA,""
"image-keyboard-response",530,615631,"0.0-3.173-0.173","wg1x2azrzgy7nov",134,"166.csv","","670.2000000029802","resources/trios/L2T2A2.jpg","37","restless",0.5,0.5,0.4,0.569595121448775,"false"
"image-keyboard-response",531,616036,"0.0-3.173-1.173","wg1x2azrzgy7nov",134,"166.csv","","null","resources/maskTrios/L2BB.jpg","null","",NA,NA,NA,NA,""
"image-keyboard-response",532,617238,"0.0-3.173-2.173","wg1x2azrzgy7nov",134,"166.csv","","null","resources/images/fishbone.png","null","",NA,NA,NA,NA,""
"image-keyboard-response",533,617902,"0.0-3.174-0.174","wg1x2azrzgy7nov",134,"166.csv","","662.7999999970198","resources/trios/L2T4A3.jpg","37","restless",0.5,0.5,0.4,0.518845058844104,"false"
"image-keyboard-response",534,618306,"0.0-3.174-1.174","wg1x2azrzgy7nov",134,"166.csv","","null","resources/maskTrios/L2BB.jpg","null","",NA,NA,NA,NA,""
"image-keyboard-response",535,619512,"0.0-3.174-2.174","wg1x2azrzgy7nov",134,"166.csv","","null","resources/images/fishbone.png","null","",NA,NA,NA,NA,""
"image-keyboard-response",536,619742,"0.0-3.175-0.175","wg1x2azrzgy7nov",134,"166.csv","","229","resources/trios/L2T4A2.jpg","39","restless",0.5,0.5,0.4,0.559197182219087,"false"
"image-keyboard-response",537,620145,"0.0-3.175-1.175","wg1x2azrzgy7nov",134,"166.csv","","null","resources/maskTrios/BBA2.jpg","null","",NA,NA,NA,NA,""
"image-keyboard-response",538,621351,"0.0-3.175-2.175","wg1x2azrzgy7nov",134,"166.csv","","null","resources/images/fishbone.png","null","",NA,NA,NA,NA,""
"image-keyboard-response",539,621904,"0.0-3.176-0.176","wg1x2azrzgy7nov",134,"166.csv","","551","resources/trios/L2T4A2.jpg","38","restless",0.5,0.5,0.4,0.942641924791508,"false"
"image-keyboard-response",540,622308,"0.0-3.176-1.176","wg1x2azrzgy7nov",134,"166.csv","","null","resources/maskTrios/BT4B.jpg","null","",NA,NA,NA,NA,""
"image-keyboard-response",541,623514,"0.0-3.176-2.176","wg1x2azrzgy7nov",134,"166.csv","","null","resources/images/fishbone.png","null","",NA,NA,NA,NA,""
"image-keyboard-response",542,624021,"0.0-3.177-0.177","wg1x2azrzgy7nov",134,"166.csv","","505.5","resources/trios/L2T4A2.jpg","38","restless",0.5,0.5,0.5,0.661627964417054,"false"
"image-keyboard-response",543,624427,"0.0-3.177-1.177","wg1x2azrzgy7nov",134,"166.csv","","null","resources/maskTrios/BT4B.jpg","null","",NA,NA,NA,NA,""
"image-keyboard-response",544,625634,"0.0-3.177-2.177","wg1x2azrzgy7nov",134,"166.csv","","null","resources/images/fishbone.png","null","",NA,NA,NA,NA,""
"image-keyboard-response",545,625683,"0.0-3.178-0.178","wg1x2azrzgy7nov",134,"166.csv","","48.099999994039536","resources/trios/L1T2A3.jpg","39","restless",0.5,0.5,0.5,0.226699895990806,"true"
"image-keyboard-response",546,626088,"0.0-3.178-1.178","wg1x2azrzgy7nov",134,"166.csv","","null","resources/maskTrios/BBA3.jpg","null","",NA,NA,NA,NA,""
"image-keyboard-response",547,627290,"0.0-3.178-2.178","wg1x2azrzgy7nov",134,"166.csv","","null","resources/images/coin2.png","null","",NA,NA,NA,NA,""
"image-keyboard-response",548,627423,"0.0-3.179-0.179","wg1x2azrzgy7nov",134,"166.csv","","131.60000000149012","resources/trios/L1T2A3.jpg","39","restless",0.5,0.5,0.5,0.0778105543686562,"true"
"image-keyboard-response",549,627826,"0.0-3.179-1.179","wg1x2azrzgy7nov",134,"166.csv","","null","resources/maskTrios/BBA3.jpg","null","",NA,NA,NA,NA,""
"image-keyboard-response",550,629033,"0.0-3.179-2.179","wg1x2azrzgy7nov",134,"166.csv","","null","resources/images/coin2.png","null","",NA,NA,NA,NA,""
"image-keyboard-response",551,629054,"0.0-3.180-0.180","wg1x2azrzgy7nov",134,"166.csv","","19.899999998509884","resources/trios/L1T2A3.jpg","39","restless",0.5,0.5,0.5,0.77902295770509,"false"
"image-keyboard-response",552,629461,"0.0-3.180-1.180","wg1x2azrzgy7nov",134,"166.csv","","null","resources/maskTrios/BBA3.jpg","null","",NA,NA,NA,NA,""
"image-keyboard-response",553,630667,"0.0-3.180-2.180","wg1x2azrzgy7nov",134,"166.csv","","null","resources/images/fishbone.png","null","",NA,NA,NA,NA,""
"image-keyboard-response",554,630832,"0.0-3.181-0.181","wg1x2azrzgy7nov",134,"166.csv","","163.79999999701977","resources/trios/L1T2A2.jpg","39","restless",0.5,0.5,0.6,0.533881237876068,"true"
"image-keyboard-response",555,631234,"0.0-3.181-1.181","wg1x2azrzgy7nov",134,"166.csv","","null","resources/maskTrios/BBA2.jpg","null","",NA,NA,NA,NA,""
"image-keyboard-response",556,632437,"0.0-3.181-2.181","wg1x2azrzgy7nov",134,"166.csv","","null","resources/images/coin2.png","null","",NA,NA,NA,NA,""
"image-keyboard-response",557,632697,"0.0-3.182-0.182","wg1x2azrzgy7nov",134,"166.csv","","258.6000000014901","resources/trios/L1T4A3.jpg","39","restless",0.5,0.5,0.6,0.650816129274568,"false"
"image-keyboard-response",558,633099,"0.0-3.182-1.182","wg1x2azrzgy7nov",134,"166.csv","","null","resources/maskTrios/BBA3.jpg","null","",NA,NA,NA,NA,""
"image-keyboard-response",559,634301,"0.0-3.182-2.182","wg1x2azrzgy7nov",134,"166.csv","","null","resources/images/fishbone.png","null","",NA,NA,NA,NA,""
"image-keyboard-response",560,634765,"0.0-3.183-0.183","wg1x2azrzgy7nov",134,"166.csv","","462.79999999701977","resources/trios/L2T2A2.jpg","39","restless",0.5,0.5,0.6,0.322134533350724,"true"
"image-keyboard-response",561,635170,"0.0-3.183-1.183","wg1x2azrzgy7nov",134,"166.csv","","null","resources/maskTrios/BBA2.jpg","null","",NA,NA,NA,NA,""
"image-keyboard-response",562,636377,"0.0-3.183-2.183","wg1x2azrzgy7nov",134,"166.csv","","null","resources/images/coin2.png","null","",NA,NA,NA,NA,""
"image-keyboard-response",563,636749,"0.0-3.184-0.184","wg1x2azrzgy7nov",134,"166.csv","","371","resources/trios/L2T4A3.jpg","37","restless",0.5,0.5,0.6,0.617733956844421,"false"
"image-keyboard-response",564,637156,"0.0-3.184-1.184","wg1x2azrzgy7nov",134,"166.csv","","null","resources/maskTrios/L2BB.jpg","null","",NA,NA,NA,NA,""
"image-keyboard-response",565,638358,"0.0-3.184-2.184","wg1x2azrzgy7nov",134,"166.csv","","null","resources/images/fishbone.png","null","",NA,NA,NA,NA,""
"image-keyboard-response",566,638798,"0.0-3.185-0.185","wg1x2azrzgy7nov",134,"166.csv","","439","resources/trios/L2T2A3.jpg","39","restless",0.5,0.5,0.6,0.635869941995272,"false"
"image-keyboard-response",567,639204,"0.0-3.185-1.185","wg1x2azrzgy7nov",134,"166.csv","","null","resources/maskTrios/BBA3.jpg","null","",NA,NA,NA,NA,""
"image-keyboard-response",568,640410,"0.0-3.185-2.185","wg1x2azrzgy7nov",134,"166.csv","","null","resources/images/fishbone.png","null","",NA,NA,NA,NA,""
"image-keyboard-response",569,641109,"0.0-3.186-0.186","wg1x2azrzgy7nov",134,"166.csv","","697.3999999985099","resources/trios/L1T2A3.jpg","38","restless",0.5,0.5,0.6,0.59550132641406,"false"
"image-keyboard-response",570,641516,"0.0-3.186-1.186","wg1x2azrzgy7nov",134,"166.csv","","null","resources/maskTrios/BT2B.jpg","null","",NA,NA,NA,NA,""
"image-keyboard-response",571,642722,"0.0-3.186-2.186","wg1x2azrzgy7nov",134,"166.csv","","null","resources/images/fishbone.png","null","",NA,NA,NA,NA,""
"image-keyboard-response",572,643323,"0.0-3.187-0.187","wg1x2azrzgy7nov",134,"166.csv","","599.7000000029802","resources/trios/L1T2A2.jpg","39","restless",0.5,0.5,0.6,0.634036073569576,"false"
"image-keyboard-response",573,643727,"0.0-3.187-1.187","wg1x2azrzgy7nov",134,"166.csv","","null","resources/maskTrios/BBA2.jpg","null","",NA,NA,NA,NA,""
"image-keyboard-response",574,644933,"0.0-3.187-2.187","wg1x2azrzgy7nov",134,"166.csv","","null","resources/images/fishbone.png","null","",NA,NA,NA,NA,""
"image-keyboard-response",575,645601,"0.0-3.188-0.188","wg1x2azrzgy7nov",134,"166.csv","","666.1999999955297","resources/trios/L2T2A3.jpg","37","restless",0.5,0.5,0.6,0.67963391715604,"false"
"image-keyboard-response",576,646007,"0.0-3.188-1.188","wg1x2azrzgy7nov",134,"166.csv","","null","resources/maskTrios/L2BB.jpg","null","",NA,NA,NA,NA,""
"image-keyboard-response",577,647211,"0.0-3.188-2.188","wg1x2azrzgy7nov",134,"166.csv","","null","resources/images/fishbone.png","null","",NA,NA,NA,NA,""
"image-keyboard-response",578,647535,"0.0-3.189-0.189","wg1x2azrzgy7nov",134,"166.csv","","322.70000000298023","resources/trios/L2T2A2.jpg","38","restless",0.5,0.5,0.6,0.0208107352513895,"true"
"image-keyboard-response",579,647937,"0.0-3.189-1.189","wg1x2azrzgy7nov",134,"166.csv","","null","resources/maskTrios/BT2B.jpg","null","",NA,NA,NA,NA,""
"image-keyboard-response",580,649144,"0.0-3.189-2.189","wg1x2azrzgy7nov",134,"166.csv","","null","resources/images/coin2.png","null","",NA,NA,NA,NA,""
"image-keyboard-response",581,649802,"0.0-3.190-0.190","wg1x2azrzgy7nov",134,"166.csv","","656.3999999985099","resources/trios/L1T2A3.jpg","38","restless",0.5,0.5,0.6,0.123024708155543,"true"
"image-keyboard-response",582,650204,"0.0-3.190-1.190","wg1x2azrzgy7nov",134,"166.csv","","null","resources/maskTrios/BT2B.jpg","null","",NA,NA,NA,NA,""
"image-keyboard-response",583,651408,"0.0-3.190-2.190","wg1x2azrzgy7nov",134,"166.csv","","null","resources/images/coin2.png","null","",NA,NA,NA,NA,""
"image-keyboard-response",584,652829,"0.0-3.191-0.191","wg1x2azrzgy7nov",134,"166.csv","","1419.5","resources/trios/L1T2A2.jpg","38","restless",0.5,0.5,0.6,0.490026992474716,"true"
"image-keyboard-response",585,653235,"0.0-3.191-1.191","wg1x2azrzgy7nov",134,"166.csv","","null","resources/maskTrios/BT2B.jpg","null","",NA,NA,NA,NA,""
"image-keyboard-response",586,654439,"0.0-3.191-2.191","wg1x2azrzgy7nov",134,"166.csv","","null","resources/images/coin2.png","null","",NA,NA,NA,NA,""
"image-keyboard-response",587,655094,"0.0-3.192-0.192","wg1x2azrzgy7nov",134,"166.csv","","653.2000000029802","resources/trios/L2T4A2.jpg","38","restless",0.5,0.5,0.6,0.573857431261234,"false"
"image-keyboard-response",588,655501,"0.0-3.192-1.192","wg1x2azrzgy7nov",134,"166.csv","","null","resources/maskTrios/BT4B.jpg","null","",NA,NA,NA,NA,""
"image-keyboard-response",589,656704,"0.0-3.192-2.192","wg1x2azrzgy7nov",134,"166.csv","","null","resources/images/fishbone.png","null","",NA,NA,NA,NA,""
"image-keyboard-response",590,657411,"0.0-3.193-0.193","wg1x2azrzgy7nov",134,"166.csv","","706","resources/trios/L2T4A3.jpg","37","restless",0.6,0.5,0.6,0.434160608586278,"true"
"image-keyboard-response",591,657816,"0.0-3.193-1.193","wg1x2azrzgy7nov",134,"166.csv","","null","resources/maskTrios/L2BB.jpg","null","",NA,NA,NA,NA,""
"image-keyboard-response",592,659021,"0.0-3.193-2.193","wg1x2azrzgy7nov",134,"166.csv","","null","resources/images/coin2.png","null","",NA,NA,NA,NA,""
"image-keyboard-response",593,659925,"0.0-3.194-0.194","wg1x2azrzgy7nov",134,"166.csv","","902.5","resources/trios/L2T2A3.jpg","37","restless",0.6,0.5,0.6,0.0723020931974916,"true"
"image-keyboard-response",594,660330,"0.0-3.194-1.194","wg1x2azrzgy7nov",134,"166.csv","","null","resources/maskTrios/L2BB.jpg","null","",NA,NA,NA,NA,""
"image-keyboard-response",595,661534,"0.0-3.194-2.194","wg1x2azrzgy7nov",134,"166.csv","","null","resources/images/coin2.png","null","",NA,NA,NA,NA,""
"image-keyboard-response",596,662210,"0.0-3.195-0.195","wg1x2azrzgy7nov",134,"166.csv","","674.6000000014901","resources/trios/L1T4A3.jpg","37","restless",0.6,0.5,0.6,0.186938692152687,"true"
"image-keyboard-response",597,662612,"0.0-3.195-1.195","wg1x2azrzgy7nov",134,"166.csv","","null","resources/maskTrios/L1BB.jpg","null","",NA,NA,NA,NA,""
"image-keyboard-response",598,663817,"0.0-3.195-2.195","wg1x2azrzgy7nov",134,"166.csv","","null","resources/images/coin2.png","null","",NA,NA,NA,NA,""
"image-keyboard-response",599,663855,"0.0-3.196-0.196","wg1x2azrzgy7nov",134,"166.csv","","36.399999998509884","resources/trios/L2T2A3.jpg","37","restless",0.6,0.5,0.6,0.403570741998448,"true"
"image-keyboard-response",600,664260,"0.0-3.196-1.196","wg1x2azrzgy7nov",134,"166.csv","","null","resources/maskTrios/L2BB.jpg","null","",NA,NA,NA,NA,""
"image-keyboard-response",601,665462,"0.0-3.196-2.196","wg1x2azrzgy7nov",134,"166.csv","","null","resources/images/coin2.png","null","",NA,NA,NA,NA,""
"image-keyboard-response",602,666267,"0.0-3.197-0.197","wg1x2azrzgy7nov",134,"166.csv","","803.4000000059605","resources/trios/L2T4A3.jpg","37","restless",0.6,0.5,0.6,0.912168057540756,"false"
"image-keyboard-response",603,666671,"0.0-3.197-1.197","wg1x2azrzgy7nov",134,"166.csv","","null","resources/maskTrios/L2BB.jpg","null","",NA,NA,NA,NA,""
"image-keyboard-response",604,667872,"0.0-3.197-2.197","wg1x2azrzgy7nov",134,"166.csv","","null","resources/images/fishbone.png","null","",NA,NA,NA,NA,""
