"trial_type","trial_index","time_elapsed","internal_node_id","subject","participantCode","walkNumber","success","rt","stimulus","key_press","test_part","leftProb","midProb","rightProb","generatedNum","correct"
"pavlovia",0,1072,"0.0-0.0","476v5ewupks5rx2",851,"154.csv","","","","","",NA,NA,NA,NA,""
"fullscreen",1,12751,"0.0-1.0","476v5ewupks5rx2",851,"154.csv","true","","","","",NA,NA,NA,NA,""
"html-keyboard-response",2,34917,"0.0-2.0-0.0","476v5ewupks5rx2",851,"154.csv","","22164","<p><font size='6'>Arrrgh!</p></font><p>Can you be the best pirate? Try to find lots of gold! But beware, some islands have more gold than others, and over time, the island with the most gold may change. Can YOU figure it out? </p><font size='6'>GOOD LUCK, CAPTAIN!!!</font><p>Press any key to begin</p>","32","",NA,NA,NA,NA,""
"image-keyboard-response",3,37921,"0.0-2.0-1.0","476v5ewupks5rx2",851,"154.csv","","null","resources/image_sets/111.png","null","",NA,NA,NA,NA,""
"image-keyboard-response",4,46644,"0.0-2.0-2.0","476v5ewupks5rx2",851,"154.csv","","8718.999999999993","resources/image_sets/left_highlight.png","37","",NA,NA,NA,NA,""
"image-keyboard-response",5,50488,"0.0-2.0-3.0","476v5ewupks5rx2",851,"154.csv","","3842.0000000000073","resources/image_sets/mid_highlight.png","38","",NA,NA,NA,NA,""
"image-keyboard-response",6,51964,"0.0-2.0-4.0","476v5ewupks5rx2",851,"154.csv","","1474","resources/image_sets/right_highlight.png","39","",NA,NA,NA,NA,""
"image-keyboard-response",7,55807,"0.0-2.0-5.0","476v5ewupks5rx2",851,"154.csv","","3841","resources/image_sets/111.png","13","",NA,NA,NA,NA,""
"image-keyboard-response",8,59069,"0.0-2.0-6.0","476v5ewupks5rx2",851,"154.csv","","3260","resources/images/coin2.png","13","",NA,NA,NA,NA,""
"image-keyboard-response",9,62244,"0.0-2.0-7.0","476v5ewupks5rx2",851,"154.csv","","3173","resources/images/fishbone.png","13","",NA,NA,NA,NA,""
"html-keyboard-response",10,72278,"0.0-2.0-8.0","476v5ewupks5rx2",851,"154.csv","","10033.000000000015","<p>Your first journey will be a long one, but you will get a well deserved break at the end</p><p>After the break you will have four more journeys, but each will be much shorter than the first, and you will have breaks in between each</p><p>Press Enter to begin</p>","13","",NA,NA,NA,NA,""
"image-keyboard-response",11,73905,"0.0-3.0-0.0","476v5ewupks5rx2",851,"154.csv","","1623.9999999999854","resources/trios/L2T1A1.jpg","39","restless",0.9,0.3,0.7,0.234762827929513,"true"
"image-keyboard-response",12,74313,"0.0-3.0-1.0","476v5ewupks5rx2",851,"154.csv","","null","resources/maskTrios/BBA1.jpg","null","",NA,NA,NA,NA,""
"image-keyboard-response",13,75519,"0.0-3.0-2.0","476v5ewupks5rx2",851,"154.csv","","null","resources/images/coin2.png","null","",NA,NA,NA,NA,""
"image-keyboard-response",14,78342,"0.0-3.1-0.1","476v5ewupks5rx2",851,"154.csv","","2818","resources/trios/L2T1A2.jpg","37","restless",0.9,0.2,0.7,0.269686130579385,"true"
"image-keyboard-response",15,78746,"0.0-3.1-1.1","476v5ewupks5rx2",851,"154.csv","","null","resources/maskTrios/L2BB.jpg","null","",NA,NA,NA,NA,""
"image-keyboard-response",16,79951,"0.0-3.1-2.1","476v5ewupks5rx2",851,"154.csv","","null","resources/images/coin2.png","null","",NA,NA,NA,NA,""
"image-keyboard-response",17,81444,"0.0-3.2-0.2","476v5ewupks5rx2",851,"154.csv","","1490","resources/trios/L2T1A2.jpg","38","restless",0.9,0.2,0.7,0.782056649494224,"false"
"image-keyboard-response",18,81847,"0.0-3.2-1.2","476v5ewupks5rx2",851,"154.csv","","null","resources/maskTrios/BT1B.jpg","null","",NA,NA,NA,NA,""
"image-keyboard-response",19,83051,"0.0-3.2-2.2","476v5ewupks5rx2",851,"154.csv","","null","resources/images/fishbone.png","null","",NA,NA,NA,NA,""
"image-keyboard-response",20,84337,"0.0-3.3-0.3","476v5ewupks5rx2",851,"154.csv","","1283","resources/trios/L4T1A2.jpg","37","restless",0.9,0.1,0.7,0.631988364936238,"true"
"image-keyboard-response",21,84741,"0.0-3.3-1.3","476v5ewupks5rx2",851,"154.csv","","null","resources/maskTrios/L4BB.jpg","null","",NA,NA,NA,NA,""
"image-keyboard-response",22,85946,"0.0-3.3-2.3","476v5ewupks5rx2",851,"154.csv","","null","resources/images/coin2.png","null","",NA,NA,NA,NA,""
"image-keyboard-response",23,88231,"0.0-3.4-0.4","476v5ewupks5rx2",851,"154.csv","","2286","resources/trios/L2T1A2.jpg","37","restless",0.9,0.1,0.7,0.565664418312622,"true"
"image-keyboard-response",24,88635,"0.0-3.4-1.4","476v5ewupks5rx2",851,"154.csv","","null","resources/maskTrios/L2BB.jpg","null","",NA,NA,NA,NA,""
"image-keyboard-response",25,89837,"0.0-3.4-2.4","476v5ewupks5rx2",851,"154.csv","","null","resources/images/coin2.png","null","",NA,NA,NA,NA,""
"image-keyboard-response",26,92122,"0.0-3.5-0.5","476v5ewupks5rx2",851,"154.csv","","2284","resources/trios/L4T2A1.jpg","38","restless",0.9,0.2,0.7,0.375083164008958,"false"
"image-keyboard-response",27,92525,"0.0-3.5-1.5","476v5ewupks5rx2",851,"154.csv","","null","resources/maskTrios/BT2B.jpg","null","",NA,NA,NA,NA,""
"image-keyboard-response",28,93727,"0.0-3.5-2.5","476v5ewupks5rx2",851,"154.csv","","null","resources/images/fishbone.png","null","",NA,NA,NA,NA,""
"image-keyboard-response",29,95155,"0.0-3.6-0.6","476v5ewupks5rx2",851,"154.csv","","1426.0000000000146","resources/trios/L2T1A2.jpg","39","restless",0.9,0.2,0.7,0.314109477047475,"true"
"image-keyboard-response",30,95559,"0.0-3.6-1.6","476v5ewupks5rx2",851,"154.csv","","null","resources/maskTrios/BBA2.jpg","null","",NA,NA,NA,NA,""
"image-keyboard-response",31,96762,"0.0-3.6-2.6","476v5ewupks5rx2",851,"154.csv","","null","resources/images/coin2.png","null","",NA,NA,NA,NA,""
"image-keyboard-response",32,98294,"0.0-3.7-0.7","476v5ewupks5rx2",851,"154.csv","","1528.9999999999854","resources/trios/L4T2A1.jpg","37","restless",0.9,0.2,0.7,0.12315089280354,"true"
"image-keyboard-response",33,98698,"0.0-3.7-1.7","476v5ewupks5rx2",851,"154.csv","","null","resources/maskTrios/L4BB.jpg","null","",NA,NA,NA,NA,""
"image-keyboard-response",34,99902,"0.0-3.7-2.7","476v5ewupks5rx2",851,"154.csv","","null","resources/images/coin2.png","null","",NA,NA,NA,NA,""
"image-keyboard-response",35,100977,"0.0-3.8-0.8","476v5ewupks5rx2",851,"154.csv","","1073","resources/trios/L4T2A2.jpg","39","restless",0.9,0.2,0.7,0.866824530880392,"false"
"image-keyboard-response",36,101381,"0.0-3.8-1.8","476v5ewupks5rx2",851,"154.csv","","null","resources/maskTrios/BBA2.jpg","null","",NA,NA,NA,NA,""
"image-keyboard-response",37,102585,"0.0-3.8-2.8","476v5ewupks5rx2",851,"154.csv","","null","resources/images/fishbone.png","null","",NA,NA,NA,NA,""
"image-keyboard-response",38,104927,"0.0-3.9-0.9","476v5ewupks5rx2",851,"154.csv","","2341","resources/trios/L4T2A2.jpg","38","restless",0.9,0.2,0.7,0.332355245473053,"false"
"image-keyboard-response",39,105331,"0.0-3.9-1.9","476v5ewupks5rx2",851,"154.csv","","null","resources/maskTrios/BT2B.jpg","null","",NA,NA,NA,NA,""
"image-keyboard-response",40,106534,"0.0-3.9-2.9","476v5ewupks5rx2",851,"154.csv","","null","resources/images/fishbone.png","null","",NA,NA,NA,NA,""
"image-keyboard-response",41,107453,"0.0-3.10-0.10","476v5ewupks5rx2",851,"154.csv","","916","resources/trios/L2T2A2.jpg","37","restless",0.9,0.2,0.7,0.447758191110743,"true"
"image-keyboard-response",42,107856,"0.0-3.10-1.10","476v5ewupks5rx2",851,"154.csv","","null","resources/maskTrios/L2BB.jpg","null","",NA,NA,NA,NA,""
"image-keyboard-response",43,109061,"0.0-3.10-2.10","476v5ewupks5rx2",851,"154.csv","","null","resources/images/coin2.png","null","",NA,NA,NA,NA,""
"image-keyboard-response",44,110301,"0.0-3.11-0.11","476v5ewupks5rx2",851,"154.csv","","1238","resources/trios/L4T1A1.jpg","37","restless",0.9,0.2,0.7,0.747930446598847,"true"
"image-keyboard-response",45,110705,"0.0-3.11-1.11","476v5ewupks5rx2",851,"154.csv","","null","resources/maskTrios/L4BB.jpg","null","",NA,NA,NA,NA,""
"image-keyboard-response",46,111909,"0.0-3.11-2.11","476v5ewupks5rx2",851,"154.csv","","null","resources/images/coin2.png","null","",NA,NA,NA,NA,""
"image-keyboard-response",47,113596,"0.0-3.12-0.12","476v5ewupks5rx2",851,"154.csv","","1684","resources/trios/L2T1A2.jpg","39","restless",0.9,0.2,0.7,0.178078075996115,"true"
"image-keyboard-response",48,114000,"0.0-3.12-1.12","476v5ewupks5rx2",851,"154.csv","","null","resources/maskTrios/BBA2.jpg","null","",NA,NA,NA,NA,""
"image-keyboard-response",49,115204,"0.0-3.12-2.12","476v5ewupks5rx2",851,"154.csv","","null","resources/images/coin2.png","null","",NA,NA,NA,NA,""
"image-keyboard-response",50,117044,"0.0-3.13-0.13","476v5ewupks5rx2",851,"154.csv","","1838","resources/trios/L2T2A2.jpg","37","restless",0.9,0.2,0.7,0.284307057065597,"true"
"image-keyboard-response",51,117448,"0.0-3.13-1.13","476v5ewupks5rx2",851,"154.csv","","null","resources/maskTrios/L2BB.jpg","null","",NA,NA,NA,NA,""
"image-keyboard-response",52,118652,"0.0-3.13-2.13","476v5ewupks5rx2",851,"154.csv","","null","resources/images/coin2.png","null","",NA,NA,NA,NA,""
"image-keyboard-response",53,119797,"0.0-3.14-0.14","476v5ewupks5rx2",851,"154.csv","","1141.9999999999854","resources/trios/L4T1A2.jpg","39","restless",0.9,0.2,0.8,0.545752184531808,"true"
"image-keyboard-response",54,120201,"0.0-3.14-1.14","476v5ewupks5rx2",851,"154.csv","","null","resources/maskTrios/BBA2.jpg","null","",NA,NA,NA,NA,""
"image-keyboard-response",55,121405,"0.0-3.14-2.14","476v5ewupks5rx2",851,"154.csv","","null","resources/images/coin2.png","null","",NA,NA,NA,NA,""
"image-keyboard-response",56,124490,"0.0-3.15-0.15","476v5ewupks5rx2",851,"154.csv","","3083","resources/trios/L2T2A1.jpg","37","restless",0.9,0.2,0.8,0.266973758621452,"true"
"image-keyboard-response",57,124894,"0.0-3.15-1.15","476v5ewupks5rx2",851,"154.csv","","null","resources/maskTrios/L2BB.jpg","null","",NA,NA,NA,NA,""
"image-keyboard-response",58,126098,"0.0-3.15-2.15","476v5ewupks5rx2",851,"154.csv","","null","resources/images/coin2.png","null","",NA,NA,NA,NA,""
"image-keyboard-response",59,127736,"0.0-3.16-0.16","476v5ewupks5rx2",851,"154.csv","","1635","resources/trios/L2T2A1.jpg","37","restless",0.9,0.2,0.8,0.101281151289203,"true"
"image-keyboard-response",60,128140,"0.0-3.16-1.16","476v5ewupks5rx2",851,"154.csv","","null","resources/maskTrios/L2BB.jpg","null","",NA,NA,NA,NA,""
"image-keyboard-response",61,129344,"0.0-3.16-2.16","476v5ewupks5rx2",851,"154.csv","","null","resources/images/coin2.png","null","",NA,NA,NA,NA,""
"image-keyboard-response",62,131107,"0.0-3.17-0.17","476v5ewupks5rx2",851,"154.csv","","1759.999999999971","resources/trios/L2T2A1.jpg","38","restless",0.9,0.2,0.8,0.601036219970219,"false"
"image-keyboard-response",63,131512,"0.0-3.17-1.17","476v5ewupks5rx2",851,"154.csv","","null","resources/maskTrios/BT2B.jpg","null","",NA,NA,NA,NA,""
"image-keyboard-response",64,132715,"0.0-3.17-2.17","476v5ewupks5rx2",851,"154.csv","","null","resources/images/fishbone.png","null","",NA,NA,NA,NA,""
"image-keyboard-response",65,134483,"0.0-3.18-0.18","476v5ewupks5rx2",851,"154.csv","","1765","resources/trios/L2T1A1.jpg","37","restless",0.8,0.2,0.8,0.579118590910368,"true"
"image-keyboard-response",66,134887,"0.0-3.18-1.18","476v5ewupks5rx2",851,"154.csv","","null","resources/maskTrios/L2BB.jpg","null","",NA,NA,NA,NA,""
"image-keyboard-response",67,136091,"0.0-3.18-2.18","476v5ewupks5rx2",851,"154.csv","","null","resources/images/coin2.png","null","",NA,NA,NA,NA,""
"image-keyboard-response",68,137278,"0.0-3.19-0.19","476v5ewupks5rx2",851,"154.csv","","1186","resources/trios/L2T2A1.jpg","37","restless",0.8,0.2,0.8,0.55789924750451,"true"
"image-keyboard-response",69,137682,"0.0-3.19-1.19","476v5ewupks5rx2",851,"154.csv","","null","resources/maskTrios/L2BB.jpg","null","",NA,NA,NA,NA,""
"image-keyboard-response",70,138886,"0.0-3.19-2.19","476v5ewupks5rx2",851,"154.csv","","null","resources/images/coin2.png","null","",NA,NA,NA,NA,""
"image-keyboard-response",71,140326,"0.0-3.20-0.20","476v5ewupks5rx2",851,"154.csv","","1437","resources/trios/L2T1A1.jpg","37","restless",0.8,0.2,0.8,0.776204002691781,"true"
"image-keyboard-response",72,140730,"0.0-3.20-1.20","476v5ewupks5rx2",851,"154.csv","","null","resources/maskTrios/L2BB.jpg","null","",NA,NA,NA,NA,""
"image-keyboard-response",73,141935,"0.0-3.20-2.20","476v5ewupks5rx2",851,"154.csv","","null","resources/images/coin2.png","null","",NA,NA,NA,NA,""
"image-keyboard-response",74,143815,"0.0-3.21-0.21","476v5ewupks5rx2",851,"154.csv","","1878","resources/trios/L4T1A1.jpg","37","restless",0.8,0.2,0.8,0.788541142709608,"true"
"image-keyboard-response",75,144220,"0.0-3.21-1.21","476v5ewupks5rx2",851,"154.csv","","null","resources/maskTrios/L4BB.jpg","null","",NA,NA,NA,NA,""
"image-keyboard-response",76,145424,"0.0-3.21-2.21","476v5ewupks5rx2",851,"154.csv","","null","resources/images/coin2.png","null","",NA,NA,NA,NA,""
"image-keyboard-response",77,146928,"0.0-3.22-0.22","476v5ewupks5rx2",851,"154.csv","","1501","resources/trios/L2T1A2.jpg","39","restless",0.8,0.2,0.8,0.0865066336877819,"true"
"image-keyboard-response",78,147332,"0.0-3.22-1.22","476v5ewupks5rx2",851,"154.csv","","null","resources/maskTrios/BBA2.jpg","null","",NA,NA,NA,NA,""
"image-keyboard-response",79,148537,"0.0-3.22-2.22","476v5ewupks5rx2",851,"154.csv","","null","resources/images/coin2.png","null","",NA,NA,NA,NA,""
"image-keyboard-response",80,149524,"0.0-3.23-0.23","476v5ewupks5rx2",851,"154.csv","","985","resources/trios/L2T2A2.jpg","37","restless",0.8,0.3,0.8,0.790303260954628,"true"
"image-keyboard-response",81,149928,"0.0-3.23-1.23","476v5ewupks5rx2",851,"154.csv","","null","resources/maskTrios/L2BB.jpg","null","",NA,NA,NA,NA,""
"image-keyboard-response",82,151132,"0.0-3.23-2.23","476v5ewupks5rx2",851,"154.csv","","null","resources/images/coin2.png","null","",NA,NA,NA,NA,""
"image-keyboard-response",83,152439,"0.0-3.24-0.24","476v5ewupks5rx2",851,"154.csv","","1304","resources/trios/L2T2A2.jpg","39","restless",0.8,0.4,0.7,0.514163178447308,"true"
"image-keyboard-response",84,152843,"0.0-3.24-1.24","476v5ewupks5rx2",851,"154.csv","","null","resources/maskTrios/BBA2.jpg","null","",NA,NA,NA,NA,""
"image-keyboard-response",85,154047,"0.0-3.24-2.24","476v5ewupks5rx2",851,"154.csv","","null","resources/images/coin2.png","null","",NA,NA,NA,NA,""
"image-keyboard-response",86,155341,"0.0-3.25-0.25","476v5ewupks5rx2",851,"154.csv","","1291","resources/trios/L2T2A2.jpg","37","restless",0.8,0.4,0.7,0.526653769347497,"true"
"image-keyboard-response",87,155745,"0.0-3.25-1.25","476v5ewupks5rx2",851,"154.csv","","null","resources/maskTrios/L2BB.jpg","null","",NA,NA,NA,NA,""
"image-keyboard-response",88,156962,"0.0-3.25-2.25","476v5ewupks5rx2",851,"154.csv","","null","resources/images/coin2.png","null","",NA,NA,NA,NA,""
"image-keyboard-response",89,158283,"0.0-3.26-0.26","476v5ewupks5rx2",851,"154.csv","","1314","resources/trios/L2T1A1.jpg","37","restless",0.8,0.4,0.7,0.621455673249282,"true"
"image-keyboard-response",90,158688,"0.0-3.26-1.26","476v5ewupks5rx2",851,"154.csv","","null","resources/maskTrios/L2BB.jpg","null","",NA,NA,NA,NA,""
"image-keyboard-response",91,159893,"0.0-3.26-2.26","476v5ewupks5rx2",851,"154.csv","","null","resources/images/coin2.png","null","",NA,NA,NA,NA,""
"image-keyboard-response",92,161600,"0.0-3.27-0.27","476v5ewupks5rx2",851,"154.csv","","1703","resources/trios/L4T2A2.jpg","39","restless",0.8,0.5,0.7,0.351331923741773,"true"
"image-keyboard-response",93,162004,"0.0-3.27-1.27","476v5ewupks5rx2",851,"154.csv","","null","resources/maskTrios/BBA2.jpg","null","",NA,NA,NA,NA,""
"image-keyboard-response",94,163208,"0.0-3.27-2.27","476v5ewupks5rx2",851,"154.csv","","null","resources/images/coin2.png","null","",NA,NA,NA,NA,""
"image-keyboard-response",95,163884,"0.0-3.28-0.28","476v5ewupks5rx2",851,"154.csv","","672","resources/trios/L4T2A1.jpg","37","restless",0.8,0.5,0.7,0.579925921178702,"true"
"image-keyboard-response",96,164288,"0.0-3.28-1.28","476v5ewupks5rx2",851,"154.csv","","null","resources/maskTrios/L4BB.jpg","null","",NA,NA,NA,NA,""
"image-keyboard-response",97,165493,"0.0-3.28-2.28","476v5ewupks5rx2",851,"154.csv","","null","resources/images/coin2.png","null","",NA,NA,NA,NA,""
"image-keyboard-response",98,166857,"0.0-3.29-0.29","476v5ewupks5rx2",851,"154.csv","","1359.000000000029","resources/trios/L2T1A1.jpg","37","restless",0.8,0.5,0.7,0.878518422786565,"false"
"image-keyboard-response",99,167261,"0.0-3.29-1.29","476v5ewupks5rx2",851,"154.csv","","null","resources/maskTrios/L2BB.jpg","null","",NA,NA,NA,NA,""
"image-keyboard-response",100,168465,"0.0-3.29-2.29","476v5ewupks5rx2",851,"154.csv","","null","resources/images/fishbone.png","null","",NA,NA,NA,NA,""
"image-keyboard-response",101,171780,"0.0-3.30-0.30","476v5ewupks5rx2",851,"154.csv","","3311","resources/trios/L4T1A1.jpg","37","restless",0.8,0.5,0.7,0.604610832679404,"true"
"image-keyboard-response",102,172185,"0.0-3.30-1.30","476v5ewupks5rx2",851,"154.csv","","null","resources/maskTrios/L4BB.jpg","null","",NA,NA,NA,NA,""
"image-keyboard-response",103,173389,"0.0-3.30-2.30","476v5ewupks5rx2",851,"154.csv","","null","resources/images/coin2.png","null","",NA,NA,NA,NA,""
"image-keyboard-response",104,174617,"0.0-3.31-0.31","476v5ewupks5rx2",851,"154.csv","","1225","resources/trios/L4T1A1.jpg","37","restless",0.8,0.5,0.7,0.662067936938689,"true"
"image-keyboard-response",105,175020,"0.0-3.31-1.31","476v5ewupks5rx2",851,"154.csv","","null","resources/maskTrios/L4BB.jpg","null","",NA,NA,NA,NA,""
"image-keyboard-response",106,176225,"0.0-3.31-2.31","476v5ewupks5rx2",851,"154.csv","","null","resources/images/coin2.png","null","",NA,NA,NA,NA,""
"image-keyboard-response",107,177576,"0.0-3.32-0.32","476v5ewupks5rx2",851,"154.csv","","1347","resources/trios/L4T1A2.jpg","39","restless",0.8,0.5,0.7,0.488740195752355,"true"
"image-keyboard-response",108,177984,"0.0-3.32-1.32","476v5ewupks5rx2",851,"154.csv","","null","resources/maskTrios/BBA2.jpg","null","",NA,NA,NA,NA,""
"image-keyboard-response",109,179191,"0.0-3.32-2.32","476v5ewupks5rx2",851,"154.csv","","null","resources/images/coin2.png","null","",NA,NA,NA,NA,""
"image-keyboard-response",110,181259,"0.0-3.33-0.33","476v5ewupks5rx2",851,"154.csv","","2063","resources/trios/L2T1A1.jpg","37","restless",0.8,0.5,0.7,0.937101332626774,"false"
"image-keyboard-response",111,181664,"0.0-3.33-1.33","476v5ewupks5rx2",851,"154.csv","","null","resources/maskTrios/L2BB.jpg","null","",NA,NA,NA,NA,""
"image-keyboard-response",112,182868,"0.0-3.33-2.33","476v5ewupks5rx2",851,"154.csv","","null","resources/images/fishbone.png","null","",NA,NA,NA,NA,""
"image-keyboard-response",113,184641,"0.0-3.34-0.34","476v5ewupks5rx2",851,"154.csv","","1759","resources/trios/L2T2A2.jpg","39","restless",0.8,0.5,0.7,0.797019422661831,"false"
"image-keyboard-response",114,185045,"0.0-3.34-1.34","476v5ewupks5rx2",851,"154.csv","","null","resources/maskTrios/BBA2.jpg","null","",NA,NA,NA,NA,""
"image-keyboard-response",115,186249,"0.0-3.34-2.34","476v5ewupks5rx2",851,"154.csv","","null","resources/images/fishbone.png","null","",NA,NA,NA,NA,""
"image-keyboard-response",116,187316,"0.0-3.35-0.35","476v5ewupks5rx2",851,"154.csv","","1063","resources/trios/L4T2A2.jpg","38","restless",0.8,0.5,0.7,0.826961084241897,"false"
"image-keyboard-response",117,187721,"0.0-3.35-1.35","476v5ewupks5rx2",851,"154.csv","","null","resources/maskTrios/BT2B.jpg","null","",NA,NA,NA,NA,""
"image-keyboard-response",118,188925,"0.0-3.35-2.35","476v5ewupks5rx2",851,"154.csv","","null","resources/images/fishbone.png","null","",NA,NA,NA,NA,""
"image-keyboard-response",119,190704,"0.0-3.36-0.36","476v5ewupks5rx2",851,"154.csv","","1774","resources/trios/L4T2A2.jpg","39","restless",0.8,0.5,0.7,0.654278890348834,"true"
"image-keyboard-response",120,191109,"0.0-3.36-1.36","476v5ewupks5rx2",851,"154.csv","","null","resources/maskTrios/BBA2.jpg","null","",NA,NA,NA,NA,""
"image-keyboard-response",121,192314,"0.0-3.36-2.36","476v5ewupks5rx2",851,"154.csv","","null","resources/images/coin2.png","null","",NA,NA,NA,NA,""
"image-keyboard-response",122,193031,"0.0-3.37-0.37","476v5ewupks5rx2",851,"154.csv","","713","resources/trios/L2T2A1.jpg","37","restless",0.8,0.5,0.7,0.694321306806762,"true"
"image-keyboard-response",123,193435,"0.0-3.37-1.37","476v5ewupks5rx2",851,"154.csv","","null","resources/maskTrios/L2BB.jpg","null","",NA,NA,NA,NA,""
"image-keyboard-response",124,194639,"0.0-3.37-2.37","476v5ewupks5rx2",851,"154.csv","","null","resources/images/coin2.png","null","",NA,NA,NA,NA,""
"image-keyboard-response",125,195684,"0.0-3.38-0.38","476v5ewupks5rx2",851,"154.csv","","1042","resources/trios/L4T2A1.jpg","37","restless",0.8,0.5,0.7,0.970945774707461,"false"
"image-keyboard-response",126,196088,"0.0-3.38-1.38","476v5ewupks5rx2",851,"154.csv","","null","resources/maskTrios/L4BB.jpg","null","",NA,NA,NA,NA,""
"image-keyboard-response",127,197291,"0.0-3.38-2.38","476v5ewupks5rx2",851,"154.csv","","null","resources/images/fishbone.png","null","",NA,NA,NA,NA,""
"image-keyboard-response",128,199467,"0.0-3.39-0.39","476v5ewupks5rx2",851,"154.csv","","2173","resources/trios/L4T1A1.jpg","38","restless",0.8,0.5,0.6,0.160226064074361,"true"
"image-keyboard-response",129,199871,"0.0-3.39-1.39","476v5ewupks5rx2",851,"154.csv","","null","resources/maskTrios/BT1B.jpg","null","",NA,NA,NA,NA,""
"image-keyboard-response",130,201083,"0.0-3.39-2.39","476v5ewupks5rx2",851,"154.csv","","null","resources/images/coin2.png","null","",NA,NA,NA,NA,""
"image-keyboard-response",131,202081,"0.0-3.40-0.40","476v5ewupks5rx2",851,"154.csv","","994","resources/trios/L2T2A1.jpg","39","restless",0.8,0.5,0.6,0.0685895261226728,"true"
"image-keyboard-response",132,202486,"0.0-3.40-1.40","476v5ewupks5rx2",851,"154.csv","","null","resources/maskTrios/BBA1.jpg","null","",NA,NA,NA,NA,""
"image-keyboard-response",133,203690,"0.0-3.40-2.40","476v5ewupks5rx2",851,"154.csv","","null","resources/images/coin2.png","null","",NA,NA,NA,NA,""
"image-keyboard-response",134,205069,"0.0-3.41-0.41","476v5ewupks5rx2",851,"154.csv","","1375","resources/trios/L2T2A2.jpg","38","restless",0.8,0.5,0.6,0.176032028583132,"true"
"image-keyboard-response",135,205473,"0.0-3.41-1.41","476v5ewupks5rx2",851,"154.csv","","null","resources/maskTrios/BT2B.jpg","null","",NA,NA,NA,NA,""
"image-keyboard-response",136,206678,"0.0-3.41-2.41","476v5ewupks5rx2",851,"154.csv","","null","resources/images/coin2.png","null","",NA,NA,NA,NA,""
"image-keyboard-response",137,207920,"0.0-3.42-0.42","476v5ewupks5rx2",851,"154.csv","","1238","resources/trios/L4T2A1.jpg","38","restless",0.8,0.4,0.6,0.806156919939365,"false"
"image-keyboard-response",138,208323,"0.0-3.42-1.42","476v5ewupks5rx2",851,"154.csv","","null","resources/maskTrios/BT2B.jpg","null","",NA,NA,NA,NA,""
"image-keyboard-response",139,209527,"0.0-3.42-2.42","476v5ewupks5rx2",851,"154.csv","","null","resources/images/fishbone.png","null","",NA,NA,NA,NA,""
"image-keyboard-response",140,210876,"0.0-3.43-0.43","476v5ewupks5rx2",851,"154.csv","","1338","resources/trios/L4T1A2.jpg","39","restless",0.8,0.3,0.6,0.115727105277486,"true"
"image-keyboard-response",141,211282,"0.0-3.43-1.43","476v5ewupks5rx2",851,"154.csv","","null","resources/maskTrios/BBA2.jpg","null","",NA,NA,NA,NA,""
"image-keyboard-response",142,212487,"0.0-3.43-2.43","476v5ewupks5rx2",851,"154.csv","","null","resources/images/coin2.png","null","",NA,NA,NA,NA,""
"image-keyboard-response",143,213925,"0.0-3.44-0.44","476v5ewupks5rx2",851,"154.csv","","1434","resources/trios/L4T1A2.jpg","39","restless",0.8,0.3,0.6,0.959525264163383,"false"
"image-keyboard-response",144,214330,"0.0-3.44-1.44","476v5ewupks5rx2",851,"154.csv","","null","resources/maskTrios/BBA2.jpg","null","",NA,NA,NA,NA,""
"image-keyboard-response",145,215534,"0.0-3.44-2.44","476v5ewupks5rx2",851,"154.csv","","null","resources/images/fishbone.png","null","",NA,NA,NA,NA,""
"image-keyboard-response",146,216276,"0.0-3.45-0.45","476v5ewupks5rx2",851,"154.csv","","739","resources/trios/L2T2A2.jpg","38","restless",0.8,0.3,0.6,0.802640610908869,"false"
"image-keyboard-response",147,216680,"0.0-3.45-1.45","476v5ewupks5rx2",851,"154.csv","","null","resources/maskTrios/BT2B.jpg","null","",NA,NA,NA,NA,""
"image-keyboard-response",148,217884,"0.0-3.45-2.45","476v5ewupks5rx2",851,"154.csv","","null","resources/images/fishbone.png","null","",NA,NA,NA,NA,""
"image-keyboard-response",149,218592,"0.0-3.46-0.46","476v5ewupks5rx2",851,"154.csv","","704","resources/trios/L2T1A2.jpg","37","restless",0.8,0.3,0.6,0.382559997662033,"true"
"image-keyboard-response",150,218996,"0.0-3.46-1.46","476v5ewupks5rx2",851,"154.csv","","null","resources/maskTrios/L2BB.jpg","null","",NA,NA,NA,NA,""
"image-keyboard-response",151,220200,"0.0-3.46-2.46","476v5ewupks5rx2",851,"154.csv","","null","resources/images/coin2.png","null","",NA,NA,NA,NA,""
"image-keyboard-response",152,222168,"0.0-3.47-0.47","476v5ewupks5rx2",851,"154.csv","","1963","resources/trios/L4T1A1.jpg","39","restless",0.8,0.4,0.6,0.924443103396533,"false"
"image-keyboard-response",153,222573,"0.0-3.47-1.47","476v5ewupks5rx2",851,"154.csv","","null","resources/maskTrios/BBA1.jpg","null","",NA,NA,NA,NA,""
"image-keyboard-response",154,223777,"0.0-3.47-2.47","476v5ewupks5rx2",851,"154.csv","","null","resources/images/fishbone.png","null","",NA,NA,NA,NA,""
"image-keyboard-response",155,224464,"0.0-3.48-0.48","476v5ewupks5rx2",851,"154.csv","","683","resources/trios/L4T2A1.jpg","37","restless",0.8,0.4,0.6,0.958436649562548,"false"
"image-keyboard-response",156,224867,"0.0-3.48-1.48","476v5ewupks5rx2",851,"154.csv","","null","resources/maskTrios/L4BB.jpg","null","",NA,NA,NA,NA,""
"image-keyboard-response",157,226071,"0.0-3.48-2.48","476v5ewupks5rx2",851,"154.csv","","null","resources/images/fishbone.png","null","",NA,NA,NA,NA,""
"image-keyboard-response",158,227674,"0.0-3.49-0.49","476v5ewupks5rx2",851,"154.csv","","1598.999999999971","resources/trios/L4T1A1.jpg","38","restless",0.7,0.4,0.5,0.870112046694059,"false"
"image-keyboard-response",159,228078,"0.0-3.49-1.49","476v5ewupks5rx2",851,"154.csv","","null","resources/maskTrios/BT1B.jpg","null","",NA,NA,NA,NA,""
"image-keyboard-response",160,229282,"0.0-3.49-2.49","476v5ewupks5rx2",851,"154.csv","","null","resources/images/fishbone.png","null","",NA,NA,NA,NA,""
"image-keyboard-response",161,230699,"0.0-3.50-0.50","476v5ewupks5rx2",851,"154.csv","","1415.000000000029","resources/trios/L2T2A1.jpg","37","restless",0.7,0.4,0.5,0.979283106509576,"false"
"image-keyboard-response",162,231103,"0.0-3.50-1.50","476v5ewupks5rx2",851,"154.csv","","null","resources/maskTrios/L2BB.jpg","null","",NA,NA,NA,NA,""
"image-keyboard-response",163,232306,"0.0-3.50-2.50","476v5ewupks5rx2",851,"154.csv","","null","resources/images/fishbone.png","null","",NA,NA,NA,NA,""
"image-keyboard-response",164,233083,"0.0-3.51-0.51","476v5ewupks5rx2",851,"154.csv","","773","resources/trios/L4T2A1.jpg","39","restless",0.7,0.4,0.5,0.112548220528935,"true"
"image-keyboard-response",165,233487,"0.0-3.51-1.51","476v5ewupks5rx2",851,"154.csv","","null","resources/maskTrios/BBA1.jpg","null","",NA,NA,NA,NA,""
"image-keyboard-response",166,234691,"0.0-3.51-2.51","476v5ewupks5rx2",851,"154.csv","","null","resources/images/coin2.png","null","",NA,NA,NA,NA,""
"image-keyboard-response",167,236176,"0.0-3.52-0.52","476v5ewupks5rx2",851,"154.csv","","1482.999999999971","resources/trios/L2T1A2.jpg","39","restless",0.6,0.4,0.5,0.314962293486925,"true"
"image-keyboard-response",168,236580,"0.0-3.52-1.52","476v5ewupks5rx2",851,"154.csv","","null","resources/maskTrios/BBA2.jpg","null","",NA,NA,NA,NA,""
"image-keyboard-response",169,237785,"0.0-3.52-2.52","476v5ewupks5rx2",851,"154.csv","","null","resources/images/coin2.png","null","",NA,NA,NA,NA,""
"image-keyboard-response",170,239505,"0.0-3.53-0.53","476v5ewupks5rx2",851,"154.csv","","1716","resources/trios/L2T1A2.jpg","39","restless",0.6,0.4,0.5,0.63061211853897,"false"
"image-keyboard-response",171,239914,"0.0-3.53-1.53","476v5ewupks5rx2",851,"154.csv","","null","resources/maskTrios/BBA2.jpg","null","",NA,NA,NA,NA,""
"image-keyboard-response",172,241119,"0.0-3.53-2.53","476v5ewupks5rx2",851,"154.csv","","null","resources/images/fishbone.png","null","",NA,NA,NA,NA,""
"image-keyboard-response",173,242531,"0.0-3.54-0.54","476v5ewupks5rx2",851,"154.csv","","1408","resources/trios/L4T1A2.jpg","37","restless",0.6,0.4,0.5,0.776409039872718,"false"
"image-keyboard-response",174,242934,"0.0-3.54-1.54","476v5ewupks5rx2",851,"154.csv","","null","resources/maskTrios/L4BB.jpg","null","",NA,NA,NA,NA,""
"image-keyboard-response",175,244138,"0.0-3.54-2.54","476v5ewupks5rx2",851,"154.csv","","null","resources/images/fishbone.png","null","",NA,NA,NA,NA,""
"image-keyboard-response",176,244712,"0.0-3.55-0.55","476v5ewupks5rx2",851,"154.csv","","571","resources/trios/L4T1A2.jpg","38","restless",0.6,0.4,0.5,0.963294875559611,"false"
"image-keyboard-response",177,245120,"0.0-3.55-1.55","476v5ewupks5rx2",851,"154.csv","","null","resources/maskTrios/BT1B.jpg","null","",NA,NA,NA,NA,""
"image-keyboard-response",178,246325,"0.0-3.55-2.55","476v5ewupks5rx2",851,"154.csv","","null","resources/images/fishbone.png","null","",NA,NA,NA,NA,""
"image-keyboard-response",179,247615,"0.0-3.56-0.56","476v5ewupks5rx2",851,"154.csv","","1286","resources/trios/L4T2A2.jpg","38","restless",0.6,0.4,0.5,0.313629063521275,"true"
"image-keyboard-response",180,248020,"0.0-3.56-1.56","476v5ewupks5rx2",851,"154.csv","","null","resources/maskTrios/BT2B.jpg","null","",NA,NA,NA,NA,""
"image-keyboard-response",181,249224,"0.0-3.56-2.56","476v5ewupks5rx2",851,"154.csv","","null","resources/images/coin2.png","null","",NA,NA,NA,NA,""
"image-keyboard-response",182,250738,"0.0-3.57-0.57","476v5ewupks5rx2",851,"154.csv","","1510","resources/trios/L2T1A1.jpg","37","restless",0.6,0.4,0.5,0.400663570222842,"true"
"image-keyboard-response",183,251143,"0.0-3.57-1.57","476v5ewupks5rx2",851,"154.csv","","null","resources/maskTrios/L2BB.jpg","null","",NA,NA,NA,NA,""
"image-keyboard-response",184,252348,"0.0-3.57-2.57","476v5ewupks5rx2",851,"154.csv","","null","resources/images/coin2.png","null","",NA,NA,NA,NA,""
"image-keyboard-response",185,253197,"0.0-3.58-0.58","476v5ewupks5rx2",851,"154.csv","","845.0000000000291","resources/trios/L2T1A2.jpg","37","restless",0.6,0.4,0.5,0.348558738049343,"true"
"image-keyboard-response",186,253601,"0.0-3.58-1.58","476v5ewupks5rx2",851,"154.csv","","null","resources/maskTrios/L2BB.jpg","null","",NA,NA,NA,NA,""
"image-keyboard-response",187,254805,"0.0-3.58-2.58","476v5ewupks5rx2",851,"154.csv","","null","resources/images/coin2.png","null","",NA,NA,NA,NA,""
"image-keyboard-response",188,255387,"0.0-3.59-0.59","476v5ewupks5rx2",851,"154.csv","","572","resources/trios/L2T2A2.jpg","37","restless",0.6,0.4,0.5,0.475624696487453,"true"
"image-keyboard-response",189,255791,"0.0-3.59-1.59","476v5ewupks5rx2",851,"154.csv","","null","resources/maskTrios/L2BB.jpg","null","",NA,NA,NA,NA,""
"image-keyboard-response",190,256996,"0.0-3.59-2.59","476v5ewupks5rx2",851,"154.csv","","null","resources/images/coin2.png","null","",NA,NA,NA,NA,""
"image-keyboard-response",191,257580,"0.0-3.60-0.60","476v5ewupks5rx2",851,"154.csv","","581","resources/trios/L2T2A2.jpg","37","restless",0.6,0.4,0.5,0.263566787664501,"true"
"image-keyboard-response",192,257984,"0.0-3.60-1.60","476v5ewupks5rx2",851,"154.csv","","null","resources/maskTrios/L2BB.jpg","null","",NA,NA,NA,NA,""
"image-keyboard-response",193,259189,"0.0-3.60-2.60","476v5ewupks5rx2",851,"154.csv","","null","resources/images/coin2.png","null","",NA,NA,NA,NA,""
"image-keyboard-response",194,260791,"0.0-3.61-0.61","476v5ewupks5rx2",851,"154.csv","","1598","resources/trios/L4T1A1.jpg","39","restless",0.6,0.4,0.5,0.755907057954376,"false"
"image-keyboard-response",195,261200,"0.0-3.61-1.61","476v5ewupks5rx2",851,"154.csv","","null","resources/maskTrios/BBA1.jpg","null","",NA,NA,NA,NA,""
"image-keyboard-response",196,262405,"0.0-3.61-2.61","476v5ewupks5rx2",851,"154.csv","","null","resources/images/fishbone.png","null","",NA,NA,NA,NA,""
"image-keyboard-response",197,263643,"0.0-3.62-0.62","476v5ewupks5rx2",851,"154.csv","","1234","resources/trios/L2T1A1.jpg","37","restless",0.6,0.4,0.5,0.0461157681606545,"true"
"image-keyboard-response",198,264046,"0.0-3.62-1.62","476v5ewupks5rx2",851,"154.csv","","null","resources/maskTrios/L2BB.jpg","null","",NA,NA,NA,NA,""
"image-keyboard-response",199,265251,"0.0-3.62-2.62","476v5ewupks5rx2",851,"154.csv","","null","resources/images/coin2.png","null","",NA,NA,NA,NA,""
"image-keyboard-response",200,266346,"0.0-3.63-0.63","476v5ewupks5rx2",851,"154.csv","","1090.9999999999418","resources/trios/L2T2A2.jpg","37","restless",0.6,0.4,0.5,0.110388145402549,"true"
"image-keyboard-response",201,266750,"0.0-3.63-1.63","476v5ewupks5rx2",851,"154.csv","","null","resources/maskTrios/L2BB.jpg","null","",NA,NA,NA,NA,""
"image-keyboard-response",202,267955,"0.0-3.63-2.63","476v5ewupks5rx2",851,"154.csv","","null","resources/images/coin2.png","null","",NA,NA,NA,NA,""
"image-keyboard-response",203,270211,"0.0-3.64-0.64","476v5ewupks5rx2",851,"154.csv","","2252","resources/trios/L4T1A2.jpg","37","restless",0.6,0.4,0.5,0.326784986616343,"true"
"image-keyboard-response",204,270616,"0.0-3.64-1.64","476v5ewupks5rx2",851,"154.csv","","null","resources/maskTrios/L4BB.jpg","null","",NA,NA,NA,NA,""
"image-keyboard-response",205,271820,"0.0-3.64-2.64","476v5ewupks5rx2",851,"154.csv","","null","resources/images/coin2.png","null","",NA,NA,NA,NA,""
"image-keyboard-response",206,273295,"0.0-3.65-0.65","476v5ewupks5rx2",851,"154.csv","","1472","resources/trios/L4T2A1.jpg","37","restless",0.6,0.4,0.5,0.768591408100783,"false"
"image-keyboard-response",207,273699,"0.0-3.65-1.65","476v5ewupks5rx2",851,"154.csv","","null","resources/maskTrios/L4BB.jpg","null","",NA,NA,NA,NA,""
"image-keyboard-response",208,274904,"0.0-3.65-2.65","476v5ewupks5rx2",851,"154.csv","","null","resources/images/fishbone.png","null","",NA,NA,NA,NA,""
"image-keyboard-response",209,275810,"0.0-3.66-0.66","476v5ewupks5rx2",851,"154.csv","","902","resources/trios/L2T1A2.jpg","37","restless",0.6,0.4,0.5,0.0124540027848649,"true"
"image-keyboard-response",210,276214,"0.0-3.66-1.66","476v5ewupks5rx2",851,"154.csv","","null","resources/maskTrios/L2BB.jpg","null","",NA,NA,NA,NA,""
"image-keyboard-response",211,277417,"0.0-3.66-2.66","476v5ewupks5rx2",851,"154.csv","","null","resources/images/coin2.png","null","",NA,NA,NA,NA,""
"image-keyboard-response",212,278184,"0.0-3.67-0.67","476v5ewupks5rx2",851,"154.csv","","763","resources/trios/L4T1A2.jpg","37","restless",0.6,0.4,0.5,0.0419211819034909,"true"
"image-keyboard-response",213,278588,"0.0-3.67-1.67","476v5ewupks5rx2",851,"154.csv","","null","resources/maskTrios/L4BB.jpg","null","",NA,NA,NA,NA,""
"image-keyboard-response",214,279793,"0.0-3.67-2.67","476v5ewupks5rx2",851,"154.csv","","null","resources/images/coin2.png","null","",NA,NA,NA,NA,""
"image-keyboard-response",215,281070,"0.0-3.68-0.68","476v5ewupks5rx2",851,"154.csv","","1274.0000000000582","resources/trios/L4T1A1.jpg","37","restless",0.6,0.4,0.5,0.113949582600544,"true"
"image-keyboard-response",216,281473,"0.0-3.68-1.68","476v5ewupks5rx2",851,"154.csv","","null","resources/maskTrios/L4BB.jpg","null","",NA,NA,NA,NA,""
"image-keyboard-response",217,282678,"0.0-3.68-2.68","476v5ewupks5rx2",851,"154.csv","","null","resources/images/coin2.png","null","",NA,NA,NA,NA,""
"image-keyboard-response",218,283952,"0.0-3.69-0.69","476v5ewupks5rx2",851,"154.csv","","1270","resources/trios/L2T2A2.jpg","39","restless",0.6,0.4,0.5,0.758910864140965,"false"
"image-keyboard-response",219,284356,"0.0-3.69-1.69","476v5ewupks5rx2",851,"154.csv","","null","resources/maskTrios/BBA2.jpg","null","",NA,NA,NA,NA,""
"image-keyboard-response",220,285560,"0.0-3.69-2.69","476v5ewupks5rx2",851,"154.csv","","null","resources/images/fishbone.png","null","",NA,NA,NA,NA,""
"image-keyboard-response",221,286699,"0.0-3.70-0.70","476v5ewupks5rx2",851,"154.csv","","1136","resources/trios/L4T2A1.jpg","37","restless",0.6,0.4,0.5,0.127347416243518,"true"
"image-keyboard-response",222,287103,"0.0-3.70-1.70","476v5ewupks5rx2",851,"154.csv","","null","resources/maskTrios/L4BB.jpg","null","",NA,NA,NA,NA,""
"image-keyboard-response",223,288308,"0.0-3.70-2.70","476v5ewupks5rx2",851,"154.csv","","null","resources/images/coin2.png","null","",NA,NA,NA,NA,""
"image-keyboard-response",224,289157,"0.0-3.71-0.71","476v5ewupks5rx2",851,"154.csv","","845","resources/trios/L4T2A1.jpg","37","restless",0.6,0.4,0.5,0.0642875860733348,"true"
"image-keyboard-response",225,289561,"0.0-3.71-1.71","476v5ewupks5rx2",851,"154.csv","","null","resources/maskTrios/L4BB.jpg","null","",NA,NA,NA,NA,""
"image-keyboard-response",226,290766,"0.0-3.71-2.71","476v5ewupks5rx2",851,"154.csv","","null","resources/images/coin2.png","null","",NA,NA,NA,NA,""
"image-keyboard-response",227,291859,"0.0-3.72-0.72","476v5ewupks5rx2",851,"154.csv","","1090","resources/trios/L4T1A2.jpg","37","restless",0.6,0.4,0.5,0.516312196430654,"true"
"image-keyboard-response",228,292263,"0.0-3.72-1.72","476v5ewupks5rx2",851,"154.csv","","null","resources/maskTrios/L4BB.jpg","null","",NA,NA,NA,NA,""
"image-keyboard-response",229,293467,"0.0-3.72-2.72","476v5ewupks5rx2",851,"154.csv","","null","resources/images/coin2.png","null","",NA,NA,NA,NA,""
"image-keyboard-response",230,294288,"0.0-3.73-0.73","476v5ewupks5rx2",851,"154.csv","","816","resources/trios/L2T2A2.jpg","37","restless",0.6,0.4,0.5,0.650278109001357,"false"
"image-keyboard-response",231,294696,"0.0-3.73-1.73","476v5ewupks5rx2",851,"154.csv","","null","resources/maskTrios/L2BB.jpg","null","",NA,NA,NA,NA,""
"image-keyboard-response",232,295901,"0.0-3.73-2.73","476v5ewupks5rx2",851,"154.csv","","null","resources/images/fishbone.png","null","",NA,NA,NA,NA,""
"image-keyboard-response",233,296617,"0.0-3.74-0.74","476v5ewupks5rx2",851,"154.csv","","710","resources/trios/L4T1A2.jpg","38","restless",0.6,0.4,0.5,0.835600612696166,"false"
"image-keyboard-response",234,297024,"0.0-3.74-1.74","476v5ewupks5rx2",851,"154.csv","","null","resources/maskTrios/BT1B.jpg","null","",NA,NA,NA,NA,""
"image-keyboard-response",235,298229,"0.0-3.74-2.74","476v5ewupks5rx2",851,"154.csv","","null","resources/images/fishbone.png","null","",NA,NA,NA,NA,""
"image-keyboard-response",236,299522,"0.0-3.75-0.75","476v5ewupks5rx2",851,"154.csv","","1289","resources/trios/L2T2A2.jpg","38","restless",0.6,0.4,0.5,0.807154605832947,"false"
"image-keyboard-response",237,299925,"0.0-3.75-1.75","476v5ewupks5rx2",851,"154.csv","","null","resources/maskTrios/BT2B.jpg","null","",NA,NA,NA,NA,""
"image-keyboard-response",238,301130,"0.0-3.75-2.75","476v5ewupks5rx2",851,"154.csv","","null","resources/images/fishbone.png","null","",NA,NA,NA,NA,""
"image-keyboard-response",239,302417,"0.0-3.76-0.76","476v5ewupks5rx2",851,"154.csv","","1283","resources/trios/L2T2A1.jpg","37","restless",0.6,0.4,0.5,0.625763009866306,"false"
"image-keyboard-response",240,302822,"0.0-3.76-1.76","476v5ewupks5rx2",851,"154.csv","","null","resources/maskTrios/L2BB.jpg","null","",NA,NA,NA,NA,""
"image-keyboard-response",241,304027,"0.0-3.76-2.76","476v5ewupks5rx2",851,"154.csv","","null","resources/images/fishbone.png","null","",NA,NA,NA,NA,""
"image-keyboard-response",242,304659,"0.0-3.77-0.77","476v5ewupks5rx2",851,"154.csv","","629","resources/trios/L2T2A1.jpg","38","restless",0.5,0.4,0.5,0.338181440150375,"true"
"image-keyboard-response",243,305064,"0.0-3.77-1.77","476v5ewupks5rx2",851,"154.csv","","null","resources/maskTrios/BT2B.jpg","null","",NA,NA,NA,NA,""
"image-keyboard-response",244,306269,"0.0-3.77-2.77","476v5ewupks5rx2",851,"154.csv","","null","resources/images/coin2.png","null","",NA,NA,NA,NA,""
"image-keyboard-response",245,308057,"0.0-3.78-0.78","476v5ewupks5rx2",851,"154.csv","","1786.0000000000582","resources/trios/L2T2A1.jpg","38","restless",0.5,0.4,0.5,0.789922167077807,"false"
"image-keyboard-response",246,308461,"0.0-3.78-1.78","476v5ewupks5rx2",851,"154.csv","","null","resources/maskTrios/BT2B.jpg","null","",NA,NA,NA,NA,""
"image-keyboard-response",247,309665,"0.0-3.78-2.78","476v5ewupks5rx2",851,"154.csv","","null","resources/images/fishbone.png","null","",NA,NA,NA,NA,""
"image-keyboard-response",248,310900,"0.0-3.79-0.79","476v5ewupks5rx2",851,"154.csv","","1231","resources/trios/L4T1A1.jpg","37","restless",0.5,0.5,0.6,0.0645175867373473,"true"
"image-keyboard-response",249,311304,"0.0-3.79-1.79","476v5ewupks5rx2",851,"154.csv","","null","resources/maskTrios/L4BB.jpg","null","",NA,NA,NA,NA,""
"image-keyboard-response",250,312509,"0.0-3.79-2.79","476v5ewupks5rx2",851,"154.csv","","null","resources/images/coin2.png","null","",NA,NA,NA,NA,""
"image-keyboard-response",251,313964,"0.0-3.80-0.80","476v5ewupks5rx2",851,"154.csv","","1446","resources/trios/L2T2A2.jpg","37","restless",0.5,0.5,0.6,0.726458277282929,"false"
"image-keyboard-response",252,314368,"0.0-3.80-1.80","476v5ewupks5rx2",851,"154.csv","","null","resources/maskTrios/L2BB.jpg","null","",NA,NA,NA,NA,""
"image-keyboard-response",253,315573,"0.0-3.80-2.80","476v5ewupks5rx2",851,"154.csv","","null","resources/images/fishbone.png","null","",NA,NA,NA,NA,""
"image-keyboard-response",254,316535,"0.0-3.81-0.81","476v5ewupks5rx2",851,"154.csv","","959","resources/trios/L4T2A1.jpg","39","restless",0.5,0.5,0.6,0.346166442171459,"true"
"image-keyboard-response",255,316939,"0.0-3.81-1.81","476v5ewupks5rx2",851,"154.csv","","null","resources/maskTrios/BBA1.jpg","null","",NA,NA,NA,NA,""
"image-keyboard-response",256,318144,"0.0-3.81-2.81","476v5ewupks5rx2",851,"154.csv","","null","resources/images/coin2.png","null","",NA,NA,NA,NA,""
"image-keyboard-response",257,319882,"0.0-3.82-0.82","476v5ewupks5rx2",851,"154.csv","","1733","resources/trios/L2T1A2.jpg","39","restless",0.4,0.5,0.5,0.372662983693379,"true"
"image-keyboard-response",258,320291,"0.0-3.82-1.82","476v5ewupks5rx2",851,"154.csv","","null","resources/maskTrios/BBA2.jpg","null","",NA,NA,NA,NA,""
"image-keyboard-response",259,321496,"0.0-3.82-2.82","476v5ewupks5rx2",851,"154.csv","","null","resources/images/coin2.png","null","",NA,NA,NA,NA,""
"image-keyboard-response",260,323403,"0.0-3.83-0.83","476v5ewupks5rx2",851,"154.csv","","1901.0000000000582","resources/trios/L4T1A1.jpg","37","restless",0.4,0.5,0.5,0.464617052272234,"false"
"image-keyboard-response",261,323807,"0.0-3.83-1.83","476v5ewupks5rx2",851,"154.csv","","null","resources/maskTrios/L4BB.jpg","null","",NA,NA,NA,NA,""
"image-keyboard-response",262,325012,"0.0-3.83-2.83","476v5ewupks5rx2",851,"154.csv","","null","resources/images/fishbone.png","null","",NA,NA,NA,NA,""
"image-keyboard-response",263,326279,"0.0-3.84-0.84","476v5ewupks5rx2",851,"154.csv","","1262.9999999999418","resources/trios/L4T2A2.jpg","39","restless",0.4,0.5,0.5,0.627660004242275,"false"
"image-keyboard-response",264,326682,"0.0-3.84-1.84","476v5ewupks5rx2",851,"154.csv","","null","resources/maskTrios/BBA2.jpg","null","",NA,NA,NA,NA,""
"image-keyboard-response",265,327887,"0.0-3.84-2.84","476v5ewupks5rx2",851,"154.csv","","null","resources/images/fishbone.png","null","",NA,NA,NA,NA,""
"image-keyboard-response",266,328822,"0.0-3.85-0.85","476v5ewupks5rx2",851,"154.csv","","931.9999999999418","resources/trios/L2T1A2.jpg","38","restless",0.4,0.5,0.5,0.804479549450936,"false"
"image-keyboard-response",267,329226,"0.0-3.85-1.85","476v5ewupks5rx2",851,"154.csv","","null","resources/maskTrios/BT1B.jpg","null","",NA,NA,NA,NA,""
"image-keyboard-response",268,330430,"0.0-3.85-2.85","476v5ewupks5rx2",851,"154.csv","","null","resources/images/fishbone.png","null","",NA,NA,NA,NA,""
"image-keyboard-response",269,331048,"0.0-3.86-0.86","476v5ewupks5rx2",851,"154.csv","","614","resources/trios/L2T2A2.jpg","37","restless",0.4,0.5,0.6,0.46876795266828,"false"
"image-keyboard-response",270,331452,"0.0-3.86-1.86","476v5ewupks5rx2",851,"154.csv","","null","resources/maskTrios/L2BB.jpg","null","",NA,NA,NA,NA,""
"image-keyboard-response",271,332656,"0.0-3.86-2.86","476v5ewupks5rx2",851,"154.csv","","null","resources/images/fishbone.png","null","",NA,NA,NA,NA,""
"image-keyboard-response",272,333400,"0.0-3.87-0.87","476v5ewupks5rx2",851,"154.csv","","741","resources/trios/L2T1A2.jpg","39","restless",0.3,0.5,0.6,0.859338376495303,"false"
"image-keyboard-response",273,333804,"0.0-3.87-1.87","476v5ewupks5rx2",851,"154.csv","","null","resources/maskTrios/BBA2.jpg","null","",NA,NA,NA,NA,""
"image-keyboard-response",274,335008,"0.0-3.87-2.87","476v5ewupks5rx2",851,"154.csv","","null","resources/images/fishbone.png","null","",NA,NA,NA,NA,""
"image-keyboard-response",275,335418,"0.0-3.88-0.88","476v5ewupks5rx2",851,"154.csv","","406","resources/trios/L4T2A1.jpg","38","restless",0.2,0.5,0.6,0.893969690869885,"false"
"image-keyboard-response",276,335822,"0.0-3.88-1.88","476v5ewupks5rx2",851,"154.csv","","null","resources/maskTrios/BT2B.jpg","null","",NA,NA,NA,NA,""
"image-keyboard-response",277,337026,"0.0-3.88-2.88","476v5ewupks5rx2",851,"154.csv","","null","resources/images/fishbone.png","null","",NA,NA,NA,NA,""
"image-keyboard-response",278,337728,"0.0-3.89-0.89","476v5ewupks5rx2",851,"154.csv","","698","resources/trios/L2T2A1.jpg","37","restless",0.1,0.5,0.6,0.784343946565932,"false"
"image-keyboard-response",279,338132,"0.0-3.89-1.89","476v5ewupks5rx2",851,"154.csv","","null","resources/maskTrios/L2BB.jpg","null","",NA,NA,NA,NA,""
"image-keyboard-response",280,339336,"0.0-3.89-2.89","476v5ewupks5rx2",851,"154.csv","","null","resources/images/fishbone.png","null","",NA,NA,NA,NA,""
"image-keyboard-response",281,340405,"0.0-3.90-0.90","476v5ewupks5rx2",851,"154.csv","","1065","resources/trios/L4T2A1.jpg","37","restless",0.1,0.5,0.6,0.582844186579793,"false"
"image-keyboard-response",282,340809,"0.0-3.90-1.90","476v5ewupks5rx2",851,"154.csv","","null","resources/maskTrios/L4BB.jpg","null","",NA,NA,NA,NA,""
"image-keyboard-response",283,342013,"0.0-3.90-2.90","476v5ewupks5rx2",851,"154.csv","","null","resources/images/fishbone.png","null","",NA,NA,NA,NA,""
"image-keyboard-response",284,343032,"0.0-3.91-0.91","476v5ewupks5rx2",851,"154.csv","","1015","resources/trios/L2T2A1.jpg","38","restless",0.1,0.5,0.6,0.70728350072577,"false"
"image-keyboard-response",285,343435,"0.0-3.91-1.91","476v5ewupks5rx2",851,"154.csv","","null","resources/maskTrios/BT2B.jpg","null","",NA,NA,NA,NA,""
"image-keyboard-response",286,344639,"0.0-3.91-2.91","476v5ewupks5rx2",851,"154.csv","","null","resources/images/fishbone.png","null","",NA,NA,NA,NA,""
"image-keyboard-response",287,345022,"0.0-3.92-0.92","476v5ewupks5rx2",851,"154.csv","","379","resources/trios/L2T1A2.jpg","39","restless",0.1,0.5,0.6,0.37725860714504,"true"
"image-keyboard-response",288,345426,"0.0-3.92-1.92","476v5ewupks5rx2",851,"154.csv","","null","resources/maskTrios/BBA2.jpg","null","",NA,NA,NA,NA,""
"image-keyboard-response",289,346631,"0.0-3.92-2.92","476v5ewupks5rx2",851,"154.csv","","null","resources/images/coin2.png","null","",NA,NA,NA,NA,""
"image-keyboard-response",290,347892,"0.0-3.93-0.93","476v5ewupks5rx2",851,"154.csv","","1250","resources/trios/L4T1A1.jpg","37","restless",0.1,0.5,0.6,0.641874610519565,"false"
"image-keyboard-response",291,348297,"0.0-3.93-1.93","476v5ewupks5rx2",851,"154.csv","","null","resources/maskTrios/L4BB.jpg","null","",NA,NA,NA,NA,""
"image-keyboard-response",292,349502,"0.0-3.93-2.93","476v5ewupks5rx2",851,"154.csv","","null","resources/images/fishbone.png","null","",NA,NA,NA,NA,""
"image-keyboard-response",293,350017,"0.0-3.94-0.94","476v5ewupks5rx2",851,"154.csv","","512","resources/trios/L4T1A1.jpg","38","restless",0.1,0.5,0.6,0.0670015739758892,"true"
"image-keyboard-response",294,350421,"0.0-3.94-1.94","476v5ewupks5rx2",851,"154.csv","","null","resources/maskTrios/BT1B.jpg","null","",NA,NA,NA,NA,""
"image-keyboard-response",295,351626,"0.0-3.94-2.94","476v5ewupks5rx2",851,"154.csv","","null","resources/images/coin2.png","null","",NA,NA,NA,NA,""
"image-keyboard-response",296,352747,"0.0-3.95-0.95","476v5ewupks5rx2",851,"154.csv","","1116","resources/trios/L4T2A1.jpg","37","restless",0.1,0.5,0.6,0.506154758774731,"false"
"image-keyboard-response",297,353151,"0.0-3.95-1.95","476v5ewupks5rx2",851,"154.csv","","null","resources/maskTrios/L4BB.jpg","null","",NA,NA,NA,NA,""
"image-keyboard-response",298,354362,"0.0-3.95-2.95","476v5ewupks5rx2",851,"154.csv","","null","resources/images/fishbone.png","null","",NA,NA,NA,NA,""
"image-keyboard-response",299,355140,"0.0-3.96-0.96","476v5ewupks5rx2",851,"154.csv","","773.0000000000582","resources/trios/L2T1A2.jpg","38","restless",0.1,0.5,0.6,0.184590274097407,"true"
"image-keyboard-response",300,355544,"0.0-3.96-1.96","476v5ewupks5rx2",851,"154.csv","","null","resources/maskTrios/BT1B.jpg","null","",NA,NA,NA,NA,""
"image-keyboard-response",301,356750,"0.0-3.96-2.96","476v5ewupks5rx2",851,"154.csv","","null","resources/images/coin2.png","null","",NA,NA,NA,NA,""
"image-keyboard-response",302,357545,"0.0-3.97-0.97","476v5ewupks5rx2",851,"154.csv","","792","resources/trios/L2T1A2.jpg","38","restless",0.1,0.5,0.6,0.138137039136355,"true"
"image-keyboard-response",303,357950,"0.0-3.97-1.97","476v5ewupks5rx2",851,"154.csv","","null","resources/maskTrios/BT1B.jpg","null","",NA,NA,NA,NA,""
"image-keyboard-response",304,359156,"0.0-3.97-2.97","476v5ewupks5rx2",851,"154.csv","","null","resources/images/coin2.png","null","",NA,NA,NA,NA,""
"image-keyboard-response",305,360339,"0.0-3.98-0.98","476v5ewupks5rx2",851,"154.csv","","1179","resources/trios/L2T2A2.jpg","39","restless",0.1,0.6,0.6,0.942964844038169,"false"
"image-keyboard-response",306,360743,"0.0-3.98-1.98","476v5ewupks5rx2",851,"154.csv","","null","resources/maskTrios/BBA2.jpg","null","",NA,NA,NA,NA,""
"image-keyboard-response",307,361947,"0.0-3.98-2.98","476v5ewupks5rx2",851,"154.csv","","null","resources/images/fishbone.png","null","",NA,NA,NA,NA,""
"image-keyboard-response",308,362615,"0.0-3.99-0.99","476v5ewupks5rx2",851,"154.csv","","664.0000000000582","resources/trios/L2T1A2.jpg","38","restless",0.1,0.6,0.6,0.735305636502359,"false"
"image-keyboard-response",309,363020,"0.0-3.99-1.99","476v5ewupks5rx2",851,"154.csv","","null","resources/maskTrios/BT1B.jpg","null","",NA,NA,NA,NA,""
"image-keyboard-response",310,364224,"0.0-3.99-2.99","476v5ewupks5rx2",851,"154.csv","","null","resources/images/fishbone.png","null","",NA,NA,NA,NA,""
"image-keyboard-response",311,365227,"0.0-3.100-0.100","476v5ewupks5rx2",851,"154.csv","","1000","resources/trios/L2T2A2.jpg","37","restless",0.1,0.6,0.6,0.562877347664005,"false"
"image-keyboard-response",312,365631,"0.0-3.100-1.100","476v5ewupks5rx2",851,"154.csv","","null","resources/maskTrios/L2BB.jpg","null","",NA,NA,NA,NA,""
"image-keyboard-response",313,366835,"0.0-3.100-2.100","476v5ewupks5rx2",851,"154.csv","","null","resources/images/fishbone.png","null","",NA,NA,NA,NA,""
"image-keyboard-response",314,367625,"0.0-3.101-0.101","476v5ewupks5rx2",851,"154.csv","","780","resources/trios/L4T2A2.jpg","38","restless",0.1,0.7,0.6,0.150462617877875,"true"
"image-keyboard-response",315,368030,"0.0-3.101-1.101","476v5ewupks5rx2",851,"154.csv","","null","resources/maskTrios/BT2B.jpg","null","",NA,NA,NA,NA,""
"image-keyboard-response",316,369234,"0.0-3.101-2.101","476v5ewupks5rx2",851,"154.csv","","null","resources/images/coin2.png","null","",NA,NA,NA,NA,""
"image-keyboard-response",317,370552,"0.0-3.102-0.102","476v5ewupks5rx2",851,"154.csv","","1313","resources/trios/L4T2A1.jpg","38","restless",0.1,0.7,0.5,0.873204799294015,"false"
"image-keyboard-response",318,370957,"0.0-3.102-1.102","476v5ewupks5rx2",851,"154.csv","","null","resources/maskTrios/BT2B.jpg","null","",NA,NA,NA,NA,""
"image-keyboard-response",319,372161,"0.0-3.102-2.102","476v5ewupks5rx2",851,"154.csv","","null","resources/images/fishbone.png","null","",NA,NA,NA,NA,""
"image-keyboard-response",320,373357,"0.0-3.103-0.103","476v5ewupks5rx2",851,"154.csv","","1193","resources/trios/L2T2A1.jpg","37","restless",0.1,0.7,0.5,0.486576885204891,"false"
"image-keyboard-response",321,373761,"0.0-3.103-1.103","476v5ewupks5rx2",851,"154.csv","","null","resources/maskTrios/L2BB.jpg","null","",NA,NA,NA,NA,""
"image-keyboard-response",322,374966,"0.0-3.103-2.103","476v5ewupks5rx2",851,"154.csv","","null","resources/images/fishbone.png","null","",NA,NA,NA,NA,""
"image-keyboard-response",323,376608,"0.0-3.104-0.104","476v5ewupks5rx2",851,"154.csv","","1638","resources/trios/L4T1A2.jpg","38","restless",0.1,0.6,0.5,0.456864094684356,"true"
"image-keyboard-response",324,377011,"0.0-3.104-1.104","476v5ewupks5rx2",851,"154.csv","","null","resources/maskTrios/BT1B.jpg","null","",NA,NA,NA,NA,""
"image-keyboard-response",325,378216,"0.0-3.104-2.104","476v5ewupks5rx2",851,"154.csv","","null","resources/images/coin2.png","null","",NA,NA,NA,NA,""
"image-keyboard-response",326,378806,"0.0-3.105-0.105","476v5ewupks5rx2",851,"154.csv","","585","resources/trios/L2T1A2.jpg","39","restless",0.1,0.6,0.5,0.122999455887209,"true"
"image-keyboard-response",327,379210,"0.0-3.105-1.105","476v5ewupks5rx2",851,"154.csv","","null","resources/maskTrios/BBA2.jpg","null","",NA,NA,NA,NA,""
"image-keyboard-response",328,380415,"0.0-3.105-2.105","476v5ewupks5rx2",851,"154.csv","","null","resources/images/coin2.png","null","",NA,NA,NA,NA,""
"image-keyboard-response",329,381296,"0.0-3.106-0.106","476v5ewupks5rx2",851,"154.csv","","868","resources/trios/L2T2A2.jpg","39","restless",0.1,0.6,0.5,0.125456927191907,"true"
"image-keyboard-response",330,381701,"0.0-3.106-1.106","476v5ewupks5rx2",851,"154.csv","","null","resources/maskTrios/BBA2.jpg","null","",NA,NA,NA,NA,""
"image-keyboard-response",331,382907,"0.0-3.106-2.106","476v5ewupks5rx2",851,"154.csv","","null","resources/images/coin2.png","null","",NA,NA,NA,NA,""
"image-keyboard-response",332,383786,"0.0-3.107-0.107","476v5ewupks5rx2",851,"154.csv","","874","resources/trios/L2T2A1.jpg","39","restless",0.2,0.7,0.5,0.165792373546867,"true"
"image-keyboard-response",333,384190,"0.0-3.107-1.107","476v5ewupks5rx2",851,"154.csv","","null","resources/maskTrios/BBA1.jpg","null","",NA,NA,NA,NA,""
"image-keyboard-response",334,385395,"0.0-3.107-2.107","476v5ewupks5rx2",851,"154.csv","","null","resources/images/coin2.png","null","",NA,NA,NA,NA,""
"image-keyboard-response",335,386087,"0.0-3.108-0.108","476v5ewupks5rx2",851,"154.csv","","688","resources/trios/L2T1A2.jpg","39","restless",0.2,0.7,0.5,0.623896335875573,"false"
"image-keyboard-response",336,386491,"0.0-3.108-1.108","476v5ewupks5rx2",851,"154.csv","","null","resources/maskTrios/BBA2.jpg","null","",NA,NA,NA,NA,""
"image-keyboard-response",337,387696,"0.0-3.108-2.108","476v5ewupks5rx2",851,"154.csv","","null","resources/images/fishbone.png","null","",NA,NA,NA,NA,""
"image-keyboard-response",338,388445,"0.0-3.109-0.109","476v5ewupks5rx2",851,"154.csv","","745","resources/trios/L4T1A1.jpg","38","restless",0.3,0.7,0.5,0.0818524453637293,"true"
"image-keyboard-response",339,388850,"0.0-3.109-1.109","476v5ewupks5rx2",851,"154.csv","","null","resources/maskTrios/BT1B.jpg","null","",NA,NA,NA,NA,""
"image-keyboard-response",340,390055,"0.0-3.109-2.109","476v5ewupks5rx2",851,"154.csv","","null","resources/images/coin2.png","null","",NA,NA,NA,NA,""
"image-keyboard-response",341,390714,"0.0-3.110-0.110","476v5ewupks5rx2",851,"154.csv","","654","resources/trios/L2T1A1.jpg","37","restless",0.3,0.7,0.5,0.827508818247781,"false"
"image-keyboard-response",342,391119,"0.0-3.110-1.110","476v5ewupks5rx2",851,"154.csv","","null","resources/maskTrios/L2BB.jpg","null","",NA,NA,NA,NA,""
"image-keyboard-response",343,392323,"0.0-3.110-2.110","476v5ewupks5rx2",851,"154.csv","","null","resources/images/fishbone.png","null","",NA,NA,NA,NA,""
"image-keyboard-response",344,393518,"0.0-3.111-0.111","476v5ewupks5rx2",851,"154.csv","","1191","resources/trios/L4T2A2.jpg","37","restless",0.4,0.7,0.5,0.358895431151356,"true"
"image-keyboard-response",345,393922,"0.0-3.111-1.111","476v5ewupks5rx2",851,"154.csv","","null","resources/maskTrios/L4BB.jpg","null","",NA,NA,NA,NA,""
"image-keyboard-response",346,395128,"0.0-3.111-2.111","476v5ewupks5rx2",851,"154.csv","","null","resources/images/coin2.png","null","",NA,NA,NA,NA,""
"image-keyboard-response",347,395660,"0.0-3.112-0.112","476v5ewupks5rx2",851,"154.csv","","529","resources/trios/L4T2A1.jpg","37","restless",0.4,0.7,0.4,0.0146259144896442,"true"
"image-keyboard-response",348,396068,"0.0-3.112-1.112","476v5ewupks5rx2",851,"154.csv","","null","resources/maskTrios/L4BB.jpg","null","",NA,NA,NA,NA,""
"image-keyboard-response",349,397274,"0.0-3.112-2.112","476v5ewupks5rx2",851,"154.csv","","null","resources/images/coin2.png","null","",NA,NA,NA,NA,""
"image-keyboard-response",350,398448,"0.0-3.113-0.113","476v5ewupks5rx2",851,"154.csv","","1169.0000000000582","resources/trios/L2T2A1.jpg","37","restless",0.4,0.6,0.4,0.444826915104893,"false"
"image-keyboard-response",351,398852,"0.0-3.113-1.113","476v5ewupks5rx2",851,"154.csv","","null","resources/maskTrios/L2BB.jpg","null","",NA,NA,NA,NA,""
"image-keyboard-response",352,400056,"0.0-3.113-2.113","476v5ewupks5rx2",851,"154.csv","","null","resources/images/fishbone.png","null","",NA,NA,NA,NA,""
"image-keyboard-response",353,400910,"0.0-3.114-0.114","476v5ewupks5rx2",851,"154.csv","","848.9999999999418","resources/trios/L4T1A2.jpg","38","restless",0.4,0.6,0.5,0.946967843623759,"false"
"image-keyboard-response",354,401314,"0.0-3.114-1.114","476v5ewupks5rx2",851,"154.csv","","null","resources/maskTrios/BT1B.jpg","null","",NA,NA,NA,NA,""
"image-keyboard-response",355,402527,"0.0-3.114-2.114","476v5ewupks5rx2",851,"154.csv","","null","resources/images/fishbone.png","null","",NA,NA,NA,NA,""
"image-keyboard-response",356,403305,"0.0-3.115-0.115","476v5ewupks5rx2",851,"154.csv","","773","resources/trios/L4T1A1.jpg","39","restless",0.4,0.6,0.5,0.401724536629691,"true"
"image-keyboard-response",357,403710,"0.0-3.115-1.115","476v5ewupks5rx2",851,"154.csv","","null","resources/maskTrios/BBA1.jpg","null","",NA,NA,NA,NA,""
"image-keyboard-response",358,404916,"0.0-3.115-2.115","476v5ewupks5rx2",851,"154.csv","","null","resources/images/coin2.png","null","",NA,NA,NA,NA,""
"image-keyboard-response",359,405443,"0.0-3.116-0.116","476v5ewupks5rx2",851,"154.csv","","524","resources/trios/L4T1A1.jpg","39","restless",0.4,0.6,0.5,0.381236563422907,"true"
"image-keyboard-response",360,405848,"0.0-3.116-1.116","476v5ewupks5rx2",851,"154.csv","","null","resources/maskTrios/BBA1.jpg","null","",NA,NA,NA,NA,""
"image-keyboard-response",361,407053,"0.0-3.116-2.116","476v5ewupks5rx2",851,"154.csv","","null","resources/images/coin2.png","null","",NA,NA,NA,NA,""
"image-keyboard-response",362,407621,"0.0-3.117-0.117","476v5ewupks5rx2",851,"154.csv","","564","resources/trios/L2T1A1.jpg","39","restless",0.3,0.6,0.5,0.706434243409984,"false"
"image-keyboard-response",363,408025,"0.0-3.117-1.117","476v5ewupks5rx2",851,"154.csv","","null","resources/maskTrios/BBA1.jpg","null","",NA,NA,NA,NA,""
"image-keyboard-response",364,409230,"0.0-3.117-2.117","476v5ewupks5rx2",851,"154.csv","","null","resources/images/fishbone.png","null","",NA,NA,NA,NA,""
"image-keyboard-response",365,409809,"0.0-3.118-0.118","476v5ewupks5rx2",851,"154.csv","","575.9999999999418","resources/trios/L4T1A2.jpg","38","restless",0.3,0.6,0.5,0.709267066081514,"false"
"image-keyboard-response",366,410214,"0.0-3.118-1.118","476v5ewupks5rx2",851,"154.csv","","null","resources/maskTrios/BT1B.jpg","null","",NA,NA,NA,NA,""
"image-keyboard-response",367,411418,"0.0-3.118-2.118","476v5ewupks5rx2",851,"154.csv","","null","resources/images/fishbone.png","null","",NA,NA,NA,NA,""
"image-keyboard-response",368,412002,"0.0-3.119-0.119","476v5ewupks5rx2",851,"154.csv","","580","resources/trios/L4T1A2.jpg","37","restless",0.3,0.6,0.5,0.218618741023581,"true"
"image-keyboard-response",369,412407,"0.0-3.119-1.119","476v5ewupks5rx2",851,"154.csv","","null","resources/maskTrios/L4BB.jpg","null","",NA,NA,NA,NA,""
"image-keyboard-response",370,413618,"0.0-3.119-2.119","476v5ewupks5rx2",851,"154.csv","","null","resources/images/coin2.png","null","",NA,NA,NA,NA,""
"image-keyboard-response",371,414140,"0.0-3.120-0.120","476v5ewupks5rx2",851,"154.csv","","518","resources/trios/L4T2A2.jpg","37","restless",0.3,0.6,0.5,0.768109197158301,"false"
"image-keyboard-response",372,414544,"0.0-3.120-1.120","476v5ewupks5rx2",851,"154.csv","","null","resources/maskTrios/L4BB.jpg","null","",NA,NA,NA,NA,""
"image-keyboard-response",373,415748,"0.0-3.120-2.120","476v5ewupks5rx2",851,"154.csv","","null","resources/images/fishbone.png","null","",NA,NA,NA,NA,""
"image-keyboard-response",374,416574,"0.0-3.121-0.121","476v5ewupks5rx2",851,"154.csv","","822","resources/trios/L4T2A1.jpg","39","restless",0.4,0.6,0.5,0.4204259854101,"true"
"image-keyboard-response",375,416978,"0.0-3.121-1.121","476v5ewupks5rx2",851,"154.csv","","null","resources/maskTrios/BBA1.jpg","null","",NA,NA,NA,NA,""
"image-keyboard-response",376,418183,"0.0-3.121-2.121","476v5ewupks5rx2",851,"154.csv","","null","resources/images/coin2.png","null","",NA,NA,NA,NA,""
"image-keyboard-response",377,420257,"0.0-3.122-0.122","476v5ewupks5rx2",851,"154.csv","","2069","resources/trios/L4T2A1.jpg","37","restless",0.4,0.6,0.5,0.112951858675499,"true"
"image-keyboard-response",378,420661,"0.0-3.122-1.122","476v5ewupks5rx2",851,"154.csv","","null","resources/maskTrios/L4BB.jpg","null","",NA,NA,NA,NA,""
"image-keyboard-response",379,421866,"0.0-3.122-2.122","476v5ewupks5rx2",851,"154.csv","","null","resources/images/coin2.png","null","",NA,NA,NA,NA,""
"image-keyboard-response",380,422460,"0.0-3.123-0.123","476v5ewupks5rx2",851,"154.csv","","589.9999999999418","resources/trios/L4T1A2.jpg","38","restless",0.4,0.6,0.5,0.536986194083757,"true"
"image-keyboard-response",381,422864,"0.0-3.123-1.123","476v5ewupks5rx2",851,"154.csv","","null","resources/maskTrios/BT1B.jpg","null","",NA,NA,NA,NA,""
"image-keyboard-response",382,424069,"0.0-3.123-2.123","476v5ewupks5rx2",851,"154.csv","","null","resources/images/coin2.png","null","",NA,NA,NA,NA,""
"image-keyboard-response",383,424871,"0.0-3.124-0.124","476v5ewupks5rx2",851,"154.csv","","798","resources/trios/L4T2A2.jpg","38","restless",0.4,0.6,0.5,0.187667231567814,"true"
"image-keyboard-response",384,425276,"0.0-3.124-1.124","476v5ewupks5rx2",851,"154.csv","","null","resources/maskTrios/BT2B.jpg","null","",NA,NA,NA,NA,""
"image-keyboard-response",385,426483,"0.0-3.124-2.124","476v5ewupks5rx2",851,"154.csv","","null","resources/images/coin2.png","null","",NA,NA,NA,NA,""
"image-keyboard-response",386,427205,"0.0-3.125-0.125","476v5ewupks5rx2",851,"154.csv","","716.9999999999418","resources/trios/L2T1A1.jpg","39","restless",0.4,0.6,0.5,0.507973446958641,"false"
"image-keyboard-response",387,427610,"0.0-3.125-1.125","476v5ewupks5rx2",851,"154.csv","","null","resources/maskTrios/BBA1.jpg","null","",NA,NA,NA,NA,""
"image-keyboard-response",388,428814,"0.0-3.125-2.125","476v5ewupks5rx2",851,"154.csv","","null","resources/images/fishbone.png","null","",NA,NA,NA,NA,""
"image-keyboard-response",389,429344,"0.0-3.126-0.126","476v5ewupks5rx2",851,"154.csv","","525","resources/trios/L2T2A1.jpg","37","restless",0.4,0.7,0.5,0.267292375254694,"true"
"image-keyboard-response",390,429748,"0.0-3.126-1.126","476v5ewupks5rx2",851,"154.csv","","null","resources/maskTrios/L2BB.jpg","null","",NA,NA,NA,NA,""
"image-keyboard-response",391,430954,"0.0-3.126-2.126","476v5ewupks5rx2",851,"154.csv","","null","resources/images/coin2.png","null","",NA,NA,NA,NA,""
"image-keyboard-response",392,431706,"0.0-3.127-0.127","476v5ewupks5rx2",851,"154.csv","","748","resources/trios/L2T2A2.jpg","37","restless",0.4,0.7,0.5,0.984533006979871,"false"
"image-keyboard-response",393,432111,"0.0-3.127-1.127","476v5ewupks5rx2",851,"154.csv","","null","resources/maskTrios/L2BB.jpg","null","",NA,NA,NA,NA,""
"image-keyboard-response",394,433316,"0.0-3.127-2.127","476v5ewupks5rx2",851,"154.csv","","null","resources/images/fishbone.png","null","",NA,NA,NA,NA,""
"image-keyboard-response",395,433803,"0.0-3.128-0.128","476v5ewupks5rx2",851,"154.csv","","483.0000000000582","resources/trios/L2T1A2.jpg","38","restless",0.4,0.7,0.5,0.386334442619734,"true"
"image-keyboard-response",396,434208,"0.0-3.128-1.128","476v5ewupks5rx2",851,"154.csv","","null","resources/maskTrios/BT1B.jpg","null","",NA,NA,NA,NA,""
"image-keyboard-response",397,435413,"0.0-3.128-2.128","476v5ewupks5rx2",851,"154.csv","","null","resources/images/coin2.png","null","",NA,NA,NA,NA,""
"image-keyboard-response",398,437076,"0.0-3.129-0.129","476v5ewupks5rx2",851,"154.csv","","1659","resources/trios/L4T2A2.jpg","37","restless",0.4,0.7,0.5,0.672336993765675,"false"
"image-keyboard-response",399,437479,"0.0-3.129-1.129","476v5ewupks5rx2",851,"154.csv","","null","resources/maskTrios/L4BB.jpg","null","",NA,NA,NA,NA,""
"image-keyboard-response",400,438684,"0.0-3.129-2.129","476v5ewupks5rx2",851,"154.csv","","null","resources/images/fishbone.png","null","",NA,NA,NA,NA,""
"image-keyboard-response",401,439731,"0.0-3.130-0.130","476v5ewupks5rx2",851,"154.csv","","1044","resources/trios/L4T1A1.jpg","38","restless",0.4,0.7,0.5,0.69548338514136,"true"
"image-keyboard-response",402,440135,"0.0-3.130-1.130","476v5ewupks5rx2",851,"154.csv","","null","resources/maskTrios/BT1B.jpg","null","",NA,NA,NA,NA,""
"image-keyboard-response",403,441340,"0.0-3.130-2.130","476v5ewupks5rx2",851,"154.csv","","null","resources/images/coin2.png","null","",NA,NA,NA,NA,""
"image-keyboard-response",404,441718,"0.0-3.131-0.131","476v5ewupks5rx2",851,"154.csv","","374","resources/trios/L2T2A1.jpg","39","restless",0.4,0.7,0.5,0.60671007820021,"false"
"image-keyboard-response",405,442122,"0.0-3.131-1.131","476v5ewupks5rx2",851,"154.csv","","null","resources/maskTrios/BBA1.jpg","null","",NA,NA,NA,NA,""
"image-keyboard-response",406,443327,"0.0-3.131-2.131","476v5ewupks5rx2",851,"154.csv","","null","resources/images/fishbone.png","null","",NA,NA,NA,NA,""
"image-keyboard-response",407,443807,"0.0-3.132-0.132","476v5ewupks5rx2",851,"154.csv","","477","resources/trios/L2T2A2.jpg","38","restless",0.4,0.7,0.5,0.979872785176527,"false"
"image-keyboard-response",408,444211,"0.0-3.132-1.132","476v5ewupks5rx2",851,"154.csv","","null","resources/maskTrios/BT2B.jpg","null","",NA,NA,NA,NA,""
"image-keyboard-response",409,445416,"0.0-3.132-2.132","476v5ewupks5rx2",851,"154.csv","","null","resources/images/fishbone.png","null","",NA,NA,NA,NA,""
"image-keyboard-response",410,445993,"0.0-3.133-0.133","476v5ewupks5rx2",851,"154.csv","","573","resources/trios/L2T2A2.jpg","37","restless",0.4,0.7,0.5,0.270925812102636,"true"
"image-keyboard-response",411,446402,"0.0-3.133-1.133","476v5ewupks5rx2",851,"154.csv","","null","resources/maskTrios/L2BB.jpg","null","",NA,NA,NA,NA,""
"image-keyboard-response",412,447608,"0.0-3.133-2.133","476v5ewupks5rx2",851,"154.csv","","null","resources/images/coin2.png","null","",NA,NA,NA,NA,""
"image-keyboard-response",413,449250,"0.0-3.134-0.134","476v5ewupks5rx2",851,"154.csv","","1637","resources/trios/L4T2A1.jpg","38","restless",0.4,0.7,0.6,0.969387044639228,"false"
"image-keyboard-response",414,449662,"0.0-3.134-1.134","476v5ewupks5rx2",851,"154.csv","","null","resources/maskTrios/BT2B.jpg","null","",NA,NA,NA,NA,""
"image-keyboard-response",415,450865,"0.0-3.134-2.134","476v5ewupks5rx2",851,"154.csv","","null","resources/images/fishbone.png","null","",NA,NA,NA,NA,""
"image-keyboard-response",416,453546,"0.0-3.135-0.135","476v5ewupks5rx2",851,"154.csv","","2675","resources/trios/L4T1A2.jpg","37","restless",0.4,0.7,0.6,0.215767483208286,"true"
"image-keyboard-response",417,453950,"0.0-3.135-1.135","476v5ewupks5rx2",851,"154.csv","","null","resources/maskTrios/L4BB.jpg","null","",NA,NA,NA,NA,""
"image-keyboard-response",418,455156,"0.0-3.135-2.135","476v5ewupks5rx2",851,"154.csv","","null","resources/images/coin2.png","null","",NA,NA,NA,NA,""
"image-keyboard-response",419,455785,"0.0-3.136-0.136","476v5ewupks5rx2",851,"154.csv","","625","resources/trios/L4T1A2.jpg","37","restless",0.4,0.7,0.6,0.995828137523329,"false"
"image-keyboard-response",420,456190,"0.0-3.136-1.136","476v5ewupks5rx2",851,"154.csv","","null","resources/maskTrios/L4BB.jpg","null","",NA,NA,NA,NA,""
"image-keyboard-response",421,457394,"0.0-3.136-2.136","476v5ewupks5rx2",851,"154.csv","","null","resources/images/fishbone.png","null","",NA,NA,NA,NA,""
"image-keyboard-response",422,457961,"0.0-3.137-0.137","476v5ewupks5rx2",851,"154.csv","","562","resources/trios/L4T2A1.jpg","38","restless",0.4,0.7,0.5,0.2199217671547,"true"
"image-keyboard-response",423,458366,"0.0-3.137-1.137","476v5ewupks5rx2",851,"154.csv","","null","resources/maskTrios/BT2B.jpg","null","",NA,NA,NA,NA,""
"image-keyboard-response",424,459572,"0.0-3.137-2.137","476v5ewupks5rx2",851,"154.csv","","null","resources/images/coin2.png","null","",NA,NA,NA,NA,""
"image-keyboard-response",425,460448,"0.0-3.138-0.138","476v5ewupks5rx2",851,"154.csv","","867","resources/trios/L2T1A2.jpg","38","restless",0.4,0.7,0.5,0.0722438502058651,"true"
"image-keyboard-response",426,460853,"0.0-3.138-1.138","476v5ewupks5rx2",851,"154.csv","","null","resources/maskTrios/BT1B.jpg","null","",NA,NA,NA,NA,""
"image-keyboard-response",427,462058,"0.0-3.138-2.138","476v5ewupks5rx2",851,"154.csv","","null","resources/images/coin2.png","null","",NA,NA,NA,NA,""
"image-keyboard-response",428,463344,"0.0-3.139-0.139","476v5ewupks5rx2",851,"154.csv","","1282","resources/trios/L2T1A2.jpg","38","restless",0.4,0.7,0.5,0.574301841530665,"true"
"image-keyboard-response",429,463748,"0.0-3.139-1.139","476v5ewupks5rx2",851,"154.csv","","null","resources/maskTrios/BT1B.jpg","null","",NA,NA,NA,NA,""
"image-keyboard-response",430,464953,"0.0-3.139-2.139","476v5ewupks5rx2",851,"154.csv","","null","resources/images/coin2.png","null","",NA,NA,NA,NA,""
"image-keyboard-response",431,548734,"0.0-3.140-0.140","476v5ewupks5rx2",851,"154.csv","","83779.99999999994","resources/trios/L4T1A1.jpg","37","restless",0.4,0.7,0.5,0.689923472478304,"false"
"image-keyboard-response",432,549142,"0.0-3.140-1.140","476v5ewupks5rx2",851,"154.csv","","null","resources/maskTrios/L4BB.jpg","null","",NA,NA,NA,NA,""
"image-keyboard-response",433,550348,"0.0-3.140-2.140","476v5ewupks5rx2",851,"154.csv","","null","resources/images/fishbone.png","null","",NA,NA,NA,NA,""
"image-keyboard-response",434,550968,"0.0-3.141-0.141","476v5ewupks5rx2",851,"154.csv","","614.9999999998836","resources/trios/L2T1A1.jpg","39","restless",0.4,0.8,0.5,0.301135397399987,"true"
"image-keyboard-response",435,551372,"0.0-3.141-1.141","476v5ewupks5rx2",851,"154.csv","","null","resources/maskTrios/BBA1.jpg","null","",NA,NA,NA,NA,""
"image-keyboard-response",436,552577,"0.0-3.141-2.141","476v5ewupks5rx2",851,"154.csv","","null","resources/images/coin2.png","null","",NA,NA,NA,NA,""
"image-keyboard-response",437,553034,"0.0-3.142-0.142","476v5ewupks5rx2",851,"154.csv","","452","resources/trios/L2T1A2.jpg","39","restless",0.4,0.8,0.5,0.155292524060682,"true"
"image-keyboard-response",438,553438,"0.0-3.142-1.142","476v5ewupks5rx2",851,"154.csv","","null","resources/maskTrios/BBA2.jpg","null","",NA,NA,NA,NA,""
"image-keyboard-response",439,554642,"0.0-3.142-2.142","476v5ewupks5rx2",851,"154.csv","","null","resources/images/coin2.png","null","",NA,NA,NA,NA,""
"image-keyboard-response",440,555063,"0.0-3.143-0.143","476v5ewupks5rx2",851,"154.csv","","418","resources/trios/L4T2A1.jpg","39","restless",0.4,0.8,0.4,0.412901414655452,"false"
"image-keyboard-response",441,555468,"0.0-3.143-1.143","476v5ewupks5rx2",851,"154.csv","","null","resources/maskTrios/BBA1.jpg","null","",NA,NA,NA,NA,""
"image-keyboard-response",442,556673,"0.0-3.143-2.143","476v5ewupks5rx2",851,"154.csv","","null","resources/images/fishbone.png","null","",NA,NA,NA,NA,""
"image-keyboard-response",443,558488,"0.0-3.144-0.144","476v5ewupks5rx2",851,"154.csv","","1811","resources/trios/L4T2A1.jpg","37","restless",0.4,0.7,0.3,0.759834291497578,"false"
"image-keyboard-response",444,558893,"0.0-3.144-1.144","476v5ewupks5rx2",851,"154.csv","","null","resources/maskTrios/L4BB.jpg","null","",NA,NA,NA,NA,""
"image-keyboard-response",445,560098,"0.0-3.144-2.144","476v5ewupks5rx2",851,"154.csv","","null","resources/images/fishbone.png","null","",NA,NA,NA,NA,""
"image-keyboard-response",446,561494,"0.0-3.145-0.145","476v5ewupks5rx2",851,"154.csv","","1392","resources/trios/L2T1A2.jpg","38","restless",0.4,0.7,0.3,0.129247918307021,"true"
"image-keyboard-response",447,561898,"0.0-3.145-1.145","476v5ewupks5rx2",851,"154.csv","","null","resources/maskTrios/BT1B.jpg","null","",NA,NA,NA,NA,""
"image-keyboard-response",448,563103,"0.0-3.145-2.145","476v5ewupks5rx2",851,"154.csv","","null","resources/images/coin2.png","null","",NA,NA,NA,NA,""
"image-keyboard-response",449,590947,"0.0-3.146-0.146","476v5ewupks5rx2",851,"154.csv","","27840","resources/trios/L4T1A1.jpg","37","restless",0.4,0.7,0.3,0.105484169365737,"true"
"image-keyboard-response",450,591355,"0.0-3.146-1.146","476v5ewupks5rx2",851,"154.csv","","null","resources/maskTrios/L4BB.jpg","null","",NA,NA,NA,NA,""
"image-keyboard-response",451,592562,"0.0-3.146-2.146","476v5ewupks5rx2",851,"154.csv","","null","resources/images/coin2.png","null","",NA,NA,NA,NA,""
"image-keyboard-response",452,593351,"0.0-3.147-0.147","476v5ewupks5rx2",851,"154.csv","","784","resources/trios/L2T2A2.jpg","37","restless",0.5,0.7,0.2,0.654799783960568,"false"
"image-keyboard-response",453,593755,"0.0-3.147-1.147","476v5ewupks5rx2",851,"154.csv","","null","resources/maskTrios/L2BB.jpg","null","",NA,NA,NA,NA,""
"image-keyboard-response",454,594959,"0.0-3.147-2.147","476v5ewupks5rx2",851,"154.csv","","null","resources/images/fishbone.png","null","",NA,NA,NA,NA,""
"image-keyboard-response",455,595592,"0.0-3.148-0.148","476v5ewupks5rx2",851,"154.csv","","628.0000000001164","resources/trios/L4T1A2.jpg","38","restless",0.5,0.7,0.2,0.863039018259349,"false"
"image-keyboard-response",456,595996,"0.0-3.148-1.148","476v5ewupks5rx2",851,"154.csv","","null","resources/maskTrios/BT1B.jpg","null","",NA,NA,NA,NA,""
"image-keyboard-response",457,597200,"0.0-3.148-2.148","476v5ewupks5rx2",851,"154.csv","","null","resources/images/fishbone.png","null","",NA,NA,NA,NA,""
"image-keyboard-response",458,597643,"0.0-3.149-0.149","476v5ewupks5rx2",851,"154.csv","","431","resources/trios/L4T1A2.jpg","39","restless",0.4,0.8,0.2,0.177979387261977,"true"
"image-keyboard-response",459,598049,"0.0-3.149-1.149","476v5ewupks5rx2",851,"154.csv","","null","resources/maskTrios/BBA2.jpg","null","",NA,NA,NA,NA,""
"image-keyboard-response",460,599254,"0.0-3.149-2.149","476v5ewupks5rx2",851,"154.csv","","null","resources/images/coin2.png","null","",NA,NA,NA,NA,""
"image-keyboard-response",461,600004,"0.0-3.150-0.150","476v5ewupks5rx2",851,"154.csv","","745","resources/trios/L4T1A1.jpg","39","restless",0.4,0.8,0.2,0.147839606097628,"true"
"image-keyboard-response",462,600409,"0.0-3.150-1.150","476v5ewupks5rx2",851,"154.csv","","null","resources/maskTrios/BBA1.jpg","null","",NA,NA,NA,NA,""
"image-keyboard-response",463,601615,"0.0-3.150-2.150","476v5ewupks5rx2",851,"154.csv","","null","resources/images/coin2.png","null","",NA,NA,NA,NA,""
"image-keyboard-response",464,602359,"0.0-3.151-0.151","476v5ewupks5rx2",851,"154.csv","","739","resources/trios/L2T1A2.jpg","39","restless",0.4,0.8,0.2,0.167681404489528,"true"
"image-keyboard-response",465,602763,"0.0-3.151-1.151","476v5ewupks5rx2",851,"154.csv","","null","resources/maskTrios/BBA2.jpg","null","",NA,NA,NA,NA,""
"image-keyboard-response",466,603969,"0.0-3.151-2.151","476v5ewupks5rx2",851,"154.csv","","null","resources/images/coin2.png","null","",NA,NA,NA,NA,""
"image-keyboard-response",467,604642,"0.0-3.152-0.152","476v5ewupks5rx2",851,"154.csv","","669","resources/trios/L2T2A2.jpg","39","restless",0.4,0.9,0.1,0.753875323824617,"false"
"image-keyboard-response",468,605046,"0.0-3.152-1.152","476v5ewupks5rx2",851,"154.csv","","null","resources/maskTrios/BBA2.jpg","null","",NA,NA,NA,NA,""
"image-keyboard-response",469,606250,"0.0-3.152-2.152","476v5ewupks5rx2",851,"154.csv","","null","resources/images/fishbone.png","null","",NA,NA,NA,NA,""
"image-keyboard-response",470,606866,"0.0-3.153-0.153","476v5ewupks5rx2",851,"154.csv","","611","resources/trios/L2T1A2.jpg","38","restless",0.4,0.9,0.1,0.582032625915684,"true"
"image-keyboard-response",471,607270,"0.0-3.153-1.153","476v5ewupks5rx2",851,"154.csv","","null","resources/maskTrios/BT1B.jpg","null","",NA,NA,NA,NA,""
"image-keyboard-response",472,608474,"0.0-3.153-2.153","476v5ewupks5rx2",851,"154.csv","","null","resources/images/coin2.png","null","",NA,NA,NA,NA,""
"image-keyboard-response",473,609045,"0.0-3.154-0.154","476v5ewupks5rx2",851,"154.csv","","567","resources/trios/L2T2A2.jpg","37","restless",0.3,0.9,0.1,0.0441726449688533,"true"
"image-keyboard-response",474,609449,"0.0-3.154-1.154","476v5ewupks5rx2",851,"154.csv","","null","resources/maskTrios/L2BB.jpg","null","",NA,NA,NA,NA,""
"image-keyboard-response",475,610655,"0.0-3.154-2.154","476v5ewupks5rx2",851,"154.csv","","null","resources/images/coin2.png","null","",NA,NA,NA,NA,""
"image-keyboard-response",476,611450,"0.0-3.155-0.155","476v5ewupks5rx2",851,"154.csv","","790","resources/trios/L2T1A1.jpg","38","restless",0.3,0.9,0.1,0.900425421487081,"false"
"image-keyboard-response",477,611854,"0.0-3.155-1.155","476v5ewupks5rx2",851,"154.csv","","null","resources/maskTrios/BT1B.jpg","null","",NA,NA,NA,NA,""
"image-keyboard-response",478,613059,"0.0-3.155-2.155","476v5ewupks5rx2",851,"154.csv","","null","resources/images/fishbone.png","null","",NA,NA,NA,NA,""
"image-keyboard-response",479,614154,"0.0-3.156-0.156","476v5ewupks5rx2",851,"154.csv","","1090","resources/trios/L2T1A1.jpg","37","restless",0.3,0.9,0.1,0.210066741566791,"true"
"image-keyboard-response",480,614562,"0.0-3.156-1.156","476v5ewupks5rx2",851,"154.csv","","null","resources/maskTrios/L2BB.jpg","null","",NA,NA,NA,NA,""
"image-keyboard-response",481,615769,"0.0-3.156-2.156","476v5ewupks5rx2",851,"154.csv","","null","resources/images/coin2.png","null","",NA,NA,NA,NA,""
"image-keyboard-response",482,616419,"0.0-3.157-0.157","476v5ewupks5rx2",851,"154.csv","","644","resources/trios/L2T1A1.jpg","37","restless",0.3,0.9,0.1,0.338476826181416,"false"
"image-keyboard-response",483,616824,"0.0-3.157-1.157","476v5ewupks5rx2",851,"154.csv","","null","resources/maskTrios/L2BB.jpg","null","",NA,NA,NA,NA,""
"image-keyboard-response",484,618028,"0.0-3.157-2.157","476v5ewupks5rx2",851,"154.csv","","null","resources/images/fishbone.png","null","",NA,NA,NA,NA,""
"image-keyboard-response",485,618733,"0.0-3.158-0.158","476v5ewupks5rx2",851,"154.csv","","700","resources/trios/L2T1A2.jpg","39","restless",0.3,0.9,0.1,0.0297617582811758,"true"
"image-keyboard-response",486,619137,"0.0-3.158-1.158","476v5ewupks5rx2",851,"154.csv","","null","resources/maskTrios/BBA2.jpg","null","",NA,NA,NA,NA,""
"image-keyboard-response",487,620343,"0.0-3.158-2.158","476v5ewupks5rx2",851,"154.csv","","null","resources/images/coin2.png","null","",NA,NA,NA,NA,""
"image-keyboard-response",488,622175,"0.0-3.159-0.159","476v5ewupks5rx2",851,"154.csv","","1827","resources/trios/L2T2A1.jpg","37","restless",0.3,0.9,0.1,0.232503238965447,"true"
"image-keyboard-response",489,622580,"0.0-3.159-1.159","476v5ewupks5rx2",851,"154.csv","","null","resources/maskTrios/L2BB.jpg","null","",NA,NA,NA,NA,""
"image-keyboard-response",490,623786,"0.0-3.159-2.159","476v5ewupks5rx2",851,"154.csv","","null","resources/images/coin2.png","null","",NA,NA,NA,NA,""
"image-keyboard-response",491,624695,"0.0-3.160-0.160","476v5ewupks5rx2",851,"154.csv","","906","resources/trios/L2T1A2.jpg","39","restless",0.3,0.9,0.1,0.0737428816429422,"true"
"image-keyboard-response",492,625101,"0.0-3.160-1.160","476v5ewupks5rx2",851,"154.csv","","null","resources/maskTrios/BBA2.jpg","null","",NA,NA,NA,NA,""
"image-keyboard-response",493,626306,"0.0-3.160-2.160","476v5ewupks5rx2",851,"154.csv","","null","resources/images/coin2.png","null","",NA,NA,NA,NA,""
"image-keyboard-response",494,627092,"0.0-3.161-0.161","476v5ewupks5rx2",851,"154.csv","","781","resources/trios/L2T1A1.jpg","39","restless",0.3,0.9,0.1,0.111609702657686,"false"
"image-keyboard-response",495,627499,"0.0-3.161-1.161","476v5ewupks5rx2",851,"154.csv","","null","resources/maskTrios/BBA1.jpg","null","",NA,NA,NA,NA,""
"image-keyboard-response",496,628704,"0.0-3.161-2.161","476v5ewupks5rx2",851,"154.csv","","null","resources/images/fishbone.png","null","",NA,NA,NA,NA,""
"image-keyboard-response",497,629149,"0.0-3.162-0.162","476v5ewupks5rx2",851,"154.csv","","440.0000000001164","resources/trios/L2T2A2.jpg","37","restless",0.3,0.8,0.1,0.33759335832512,"false"
"image-keyboard-response",498,629553,"0.0-3.162-1.162","476v5ewupks5rx2",851,"154.csv","","null","resources/maskTrios/L2BB.jpg","null","",NA,NA,NA,NA,""
"image-keyboard-response",499,630757,"0.0-3.162-2.162","476v5ewupks5rx2",851,"154.csv","","null","resources/images/fishbone.png","null","",NA,NA,NA,NA,""
"image-keyboard-response",500,631172,"0.0-3.163-0.163","476v5ewupks5rx2",851,"154.csv","","411.0000000001164","resources/trios/L4T2A2.jpg","38","restless",0.3,0.8,0.2,0.190231533031799,"true"
"image-keyboard-response",501,631576,"0.0-3.163-1.163","476v5ewupks5rx2",851,"154.csv","","null","resources/maskTrios/BT2B.jpg","null","",NA,NA,NA,NA,""
"image-keyboard-response",502,632790,"0.0-3.163-2.163","476v5ewupks5rx2",851,"154.csv","","null","resources/images/coin2.png","null","",NA,NA,NA,NA,""
"image-keyboard-response",503,633488,"0.0-3.164-0.164","476v5ewupks5rx2",851,"154.csv","","692","resources/trios/L4T2A2.jpg","38","restless",0.3,0.8,0.2,0.0458425974566284,"true"
"image-keyboard-response",504,633892,"0.0-3.164-1.164","476v5ewupks5rx2",851,"154.csv","","null","resources/maskTrios/BT2B.jpg","null","",NA,NA,NA,NA,""
"image-keyboard-response",505,635098,"0.0-3.164-2.164","476v5ewupks5rx2",851,"154.csv","","null","resources/images/coin2.png","null","",NA,NA,NA,NA,""
"image-keyboard-response",506,636158,"0.0-3.165-0.165","476v5ewupks5rx2",851,"154.csv","","1055","resources/trios/L2T2A1.jpg","37","restless",0.3,0.8,0.2,0.316374375898953,"false"
"image-keyboard-response",507,636562,"0.0-3.165-1.165","476v5ewupks5rx2",851,"154.csv","","null","resources/maskTrios/L2BB.jpg","null","",NA,NA,NA,NA,""
"image-keyboard-response",508,637767,"0.0-3.165-2.165","476v5ewupks5rx2",851,"154.csv","","null","resources/images/fishbone.png","null","",NA,NA,NA,NA,""
"image-keyboard-response",509,638165,"0.0-3.166-0.166","476v5ewupks5rx2",851,"154.csv","","393","resources/trios/L4T2A1.jpg","39","restless",0.3,0.7,0.2,0.519623059637842,"false"
"image-keyboard-response",510,638569,"0.0-3.166-1.166","476v5ewupks5rx2",851,"154.csv","","null","resources/maskTrios/BBA1.jpg","null","",NA,NA,NA,NA,""
"image-keyboard-response",511,639775,"0.0-3.166-2.166","476v5ewupks5rx2",851,"154.csv","","null","resources/images/fishbone.png","null","",NA,NA,NA,NA,""
"image-keyboard-response",512,640211,"0.0-3.167-0.167","476v5ewupks5rx2",851,"154.csv","","432","resources/trios/L4T2A2.jpg","38","restless",0.3,0.7,0.2,0.723324017157795,"false"
"image-keyboard-response",513,640615,"0.0-3.167-1.167","476v5ewupks5rx2",851,"154.csv","","null","resources/maskTrios/BT2B.jpg","null","",NA,NA,NA,NA,""
"image-keyboard-response",514,641821,"0.0-3.167-2.167","476v5ewupks5rx2",851,"154.csv","","null","resources/images/fishbone.png","null","",NA,NA,NA,NA,""
"image-keyboard-response",515,642336,"0.0-3.168-0.168","476v5ewupks5rx2",851,"154.csv","","511","resources/trios/L2T2A1.jpg","38","restless",0.3,0.7,0.3,0.748825492154645,"false"
"image-keyboard-response",516,642741,"0.0-3.168-1.168","476v5ewupks5rx2",851,"154.csv","","null","resources/maskTrios/BT2B.jpg","null","",NA,NA,NA,NA,""
"image-keyboard-response",517,643945,"0.0-3.168-2.168","476v5ewupks5rx2",851,"154.csv","","null","resources/images/fishbone.png","null","",NA,NA,NA,NA,""
"image-keyboard-response",518,644421,"0.0-3.169-0.169","476v5ewupks5rx2",851,"154.csv","","471","resources/trios/L2T2A1.jpg","37","restless",0.3,0.7,0.3,0.971094883253602,"false"
"image-keyboard-response",519,644825,"0.0-3.169-1.169","476v5ewupks5rx2",851,"154.csv","","null","resources/maskTrios/L2BB.jpg","null","",NA,NA,NA,NA,""
"image-keyboard-response",520,646029,"0.0-3.169-2.169","476v5ewupks5rx2",851,"154.csv","","null","resources/images/fishbone.png","null","",NA,NA,NA,NA,""
"image-keyboard-response",521,646489,"0.0-3.170-0.170","476v5ewupks5rx2",851,"154.csv","","455.0000000001164","resources/trios/L2T1A2.jpg","39","restless",0.3,0.7,0.3,0.516601759778458,"false"
"image-keyboard-response",522,646893,"0.0-3.170-1.170","476v5ewupks5rx2",851,"154.csv","","null","resources/maskTrios/BBA2.jpg","null","",NA,NA,NA,NA,""
"image-keyboard-response",523,648097,"0.0-3.170-2.170","476v5ewupks5rx2",851,"154.csv","","null","resources/images/fishbone.png","null","",NA,NA,NA,NA,""
"image-keyboard-response",524,649394,"0.0-3.171-0.171","476v5ewupks5rx2",851,"154.csv","","1288","resources/trios/L2T1A1.jpg","38","restless",0.3,0.7,0.3,0.714738858797249,"false"
"image-keyboard-response",525,649800,"0.0-3.171-1.171","476v5ewupks5rx2",851,"154.csv","","null","resources/maskTrios/BT1B.jpg","null","",NA,NA,NA,NA,""
"image-keyboard-response",526,651004,"0.0-3.171-2.171","476v5ewupks5rx2",851,"154.csv","","null","resources/images/fishbone.png","null","",NA,NA,NA,NA,""
"image-keyboard-response",527,651762,"0.0-3.172-0.172","476v5ewupks5rx2",851,"154.csv","","756","resources/trios/L4T2A1.jpg","37","restless",0.3,0.7,0.4,0.344667802145569,"false"
"image-keyboard-response",528,652167,"0.0-3.172-1.172","476v5ewupks5rx2",851,"154.csv","","null","resources/maskTrios/L4BB.jpg","null","",NA,NA,NA,NA,""
"image-keyboard-response",529,653372,"0.0-3.172-2.172","476v5ewupks5rx2",851,"154.csv","","null","resources/images/fishbone.png","null","",NA,NA,NA,NA,""
"image-keyboard-response",530,653765,"0.0-3.173-0.173","476v5ewupks5rx2",851,"154.csv","","389","resources/trios/L2T1A1.jpg","38","restless",0.3,0.7,0.4,0.601399199142211,"true"
"image-keyboard-response",531,654170,"0.0-3.173-1.173","476v5ewupks5rx2",851,"154.csv","","null","resources/maskTrios/BT1B.jpg","null","",NA,NA,NA,NA,""
"image-keyboard-response",532,655376,"0.0-3.173-2.173","476v5ewupks5rx2",851,"154.csv","","null","resources/images/coin2.png","null","",NA,NA,NA,NA,""
"image-keyboard-response",533,655928,"0.0-3.174-0.174","476v5ewupks5rx2",851,"154.csv","","547","resources/trios/L4T2A1.jpg","38","restless",0.3,0.7,0.4,0.308049129068189,"true"
"image-keyboard-response",534,656332,"0.0-3.174-1.174","476v5ewupks5rx2",851,"154.csv","","null","resources/maskTrios/BT2B.jpg","null","",NA,NA,NA,NA,""
"image-keyboard-response",535,657538,"0.0-3.174-2.174","476v5ewupks5rx2",851,"154.csv","","null","resources/images/coin2.png","null","",NA,NA,NA,NA,""
"image-keyboard-response",536,658569,"0.0-3.175-0.175","476v5ewupks5rx2",851,"154.csv","","1027","resources/trios/L2T2A1.jpg","38","restless",0.3,0.7,0.4,0.627644331468966,"true"
"image-keyboard-response",537,658977,"0.0-3.175-1.175","476v5ewupks5rx2",851,"154.csv","","null","resources/maskTrios/BT2B.jpg","null","",NA,NA,NA,NA,""
"image-keyboard-response",538,660189,"0.0-3.175-2.175","476v5ewupks5rx2",851,"154.csv","","null","resources/images/coin2.png","null","",NA,NA,NA,NA,""
"image-keyboard-response",539,661651,"0.0-3.176-0.176","476v5ewupks5rx2",851,"154.csv","","1459","resources/trios/L4T1A2.jpg","38","restless",0.3,0.7,0.4,0.190165093677734,"true"
"image-keyboard-response",540,662057,"0.0-3.176-1.176","476v5ewupks5rx2",851,"154.csv","","null","resources/maskTrios/BT1B.jpg","null","",NA,NA,NA,NA,""
"image-keyboard-response",541,663262,"0.0-3.176-2.176","476v5ewupks5rx2",851,"154.csv","","null","resources/images/coin2.png","null","",NA,NA,NA,NA,""
"image-keyboard-response",542,664353,"0.0-3.177-0.177","476v5ewupks5rx2",851,"154.csv","","1085.9999999998836","resources/trios/L4T1A1.jpg","38","restless",0.4,0.6,0.4,0.636287454033014,"false"
"image-keyboard-response",543,664757,"0.0-3.177-1.177","476v5ewupks5rx2",851,"154.csv","","null","resources/maskTrios/BT1B.jpg","null","",NA,NA,NA,NA,""
"image-keyboard-response",544,665962,"0.0-3.177-2.177","476v5ewupks5rx2",851,"154.csv","","null","resources/images/fishbone.png","null","",NA,NA,NA,NA,""
"image-keyboard-response",545,666875,"0.0-3.178-0.178","476v5ewupks5rx2",851,"154.csv","","909","resources/trios/L4T1A2.jpg","38","restless",0.4,0.6,0.4,0.95919642274401,"false"
"image-keyboard-response",546,667279,"0.0-3.178-1.178","476v5ewupks5rx2",851,"154.csv","","null","resources/maskTrios/BT1B.jpg","null","",NA,NA,NA,NA,""
"image-keyboard-response",547,668482,"0.0-3.178-2.178","476v5ewupks5rx2",851,"154.csv","","null","resources/images/fishbone.png","null","",NA,NA,NA,NA,""
"image-keyboard-response",548,669146,"0.0-3.179-0.179","476v5ewupks5rx2",851,"154.csv","","659","resources/trios/L2T2A2.jpg","37","restless",0.4,0.6,0.4,0.890372328735886,"false"
"image-keyboard-response",549,669550,"0.0-3.179-1.179","476v5ewupks5rx2",851,"154.csv","","null","resources/maskTrios/L2BB.jpg","null","",NA,NA,NA,NA,""
"image-keyboard-response",550,670755,"0.0-3.179-2.179","476v5ewupks5rx2",851,"154.csv","","null","resources/images/fishbone.png","null","",NA,NA,NA,NA,""
"image-keyboard-response",551,671394,"0.0-3.180-0.180","476v5ewupks5rx2",851,"154.csv","","634","resources/trios/L2T2A1.jpg","39","restless",0.4,0.6,0.4,0.193363469431523,"true"
"image-keyboard-response",552,671800,"0.0-3.180-1.180","476v5ewupks5rx2",851,"154.csv","","null","resources/maskTrios/BBA1.jpg","null","",NA,NA,NA,NA,""
"image-keyboard-response",553,673005,"0.0-3.180-2.180","476v5ewupks5rx2",851,"154.csv","","null","resources/images/coin2.png","null","",NA,NA,NA,NA,""
"image-keyboard-response",554,673887,"0.0-3.181-0.181","476v5ewupks5rx2",851,"154.csv","","877.0000000001164","resources/trios/L2T1A1.jpg","38","restless",0.4,0.6,0.4,0.966651706963053,"false"
"image-keyboard-response",555,674290,"0.0-3.181-1.181","476v5ewupks5rx2",851,"154.csv","","null","resources/maskTrios/BT1B.jpg","null","",NA,NA,NA,NA,""
"image-keyboard-response",556,675495,"0.0-3.181-2.181","476v5ewupks5rx2",851,"154.csv","","null","resources/images/fishbone.png","null","",NA,NA,NA,NA,""
"image-keyboard-response",557,676147,"0.0-3.182-0.182","476v5ewupks5rx2",851,"154.csv","","647.0000000001164","resources/trios/L4T2A1.jpg","38","restless",0.4,0.6,0.4,0.0106476529245028,"true"
"image-keyboard-response",558,676555,"0.0-3.182-1.182","476v5ewupks5rx2",851,"154.csv","","null","resources/maskTrios/BT2B.jpg","null","",NA,NA,NA,NA,""
"image-keyboard-response",559,677761,"0.0-3.182-2.182","476v5ewupks5rx2",851,"154.csv","","null","resources/images/coin2.png","null","",NA,NA,NA,NA,""
"image-keyboard-response",560,679115,"0.0-3.183-0.183","476v5ewupks5rx2",851,"154.csv","","1349","resources/trios/L4T2A1.jpg","37","restless",0.4,0.6,0.4,0.828718697365415,"false"
"image-keyboard-response",561,679518,"0.0-3.183-1.183","476v5ewupks5rx2",851,"154.csv","","null","resources/maskTrios/L4BB.jpg","null","",NA,NA,NA,NA,""
"image-keyboard-response",562,680723,"0.0-3.183-2.183","476v5ewupks5rx2",851,"154.csv","","null","resources/images/fishbone.png","null","",NA,NA,NA,NA,""
"image-keyboard-response",563,681383,"0.0-3.184-0.184","476v5ewupks5rx2",851,"154.csv","","656","resources/trios/L4T1A2.jpg","38","restless",0.4,0.6,0.4,0.488764107973503,"true"
"image-keyboard-response",564,681787,"0.0-3.184-1.184","476v5ewupks5rx2",851,"154.csv","","null","resources/maskTrios/BT1B.jpg","null","",NA,NA,NA,NA,""
"image-keyboard-response",565,682993,"0.0-3.184-2.184","476v5ewupks5rx2",851,"154.csv","","null","resources/images/coin2.png","null","",NA,NA,NA,NA,""
"image-keyboard-response",566,684041,"0.0-3.185-0.185","476v5ewupks5rx2",851,"154.csv","","1043","resources/trios/L4T2A1.jpg","39","restless",0.4,0.7,0.4,0.0568527204391974,"true"
"image-keyboard-response",567,684445,"0.0-3.185-1.185","476v5ewupks5rx2",851,"154.csv","","null","resources/maskTrios/BBA1.jpg","null","",NA,NA,NA,NA,""
"image-keyboard-response",568,685659,"0.0-3.185-2.185","476v5ewupks5rx2",851,"154.csv","","null","resources/images/coin2.png","null","",NA,NA,NA,NA,""
"image-keyboard-response",569,686702,"0.0-3.186-0.186","476v5ewupks5rx2",851,"154.csv","","1036.9999999998836","resources/trios/L2T1A2.jpg","39","restless",0.4,0.7,0.4,0.0512665612470812,"true"
"image-keyboard-response",570,687107,"0.0-3.186-1.186","476v5ewupks5rx2",851,"154.csv","","null","resources/maskTrios/BBA2.jpg","null","",NA,NA,NA,NA,""
"image-keyboard-response",571,688312,"0.0-3.186-2.186","476v5ewupks5rx2",851,"154.csv","","null","resources/images/coin2.png","null","",NA,NA,NA,NA,""
"image-keyboard-response",572,689295,"0.0-3.187-0.187","476v5ewupks5rx2",851,"154.csv","","978.0000000001164","resources/trios/L4T2A2.jpg","39","restless",0.4,0.7,0.4,0.693353415124132,"false"
"image-keyboard-response",573,689699,"0.0-3.187-1.187","476v5ewupks5rx2",851,"154.csv","","null","resources/maskTrios/BBA2.jpg","null","",NA,NA,NA,NA,""
"image-keyboard-response",574,690904,"0.0-3.187-2.187","476v5ewupks5rx2",851,"154.csv","","null","resources/images/fishbone.png","null","",NA,NA,NA,NA,""
"image-keyboard-response",575,691322,"0.0-3.188-0.188","476v5ewupks5rx2",851,"154.csv","","412","resources/trios/L2T2A1.jpg","38","restless",0.4,0.7,0.4,0.674409246532069,"true"
"image-keyboard-response",576,691726,"0.0-3.188-1.188","476v5ewupks5rx2",851,"154.csv","","null","resources/maskTrios/BT2B.jpg","null","",NA,NA,NA,NA,""
"image-keyboard-response",577,692931,"0.0-3.188-2.188","476v5ewupks5rx2",851,"154.csv","","null","resources/images/coin2.png","null","",NA,NA,NA,NA,""
"image-keyboard-response",578,693440,"0.0-3.189-0.189","476v5ewupks5rx2",851,"154.csv","","499","resources/trios/L4T1A1.jpg","38","restless",0.4,0.7,0.4,0.385975900520113,"true"
"image-keyboard-response",579,693845,"0.0-3.189-1.189","476v5ewupks5rx2",851,"154.csv","","null","resources/maskTrios/BT1B.jpg","null","",NA,NA,NA,NA,""
"image-keyboard-response",580,695051,"0.0-3.189-2.189","476v5ewupks5rx2",851,"154.csv","","null","resources/images/coin2.png","null","",NA,NA,NA,NA,""
"image-keyboard-response",581,696040,"0.0-3.190-0.190","476v5ewupks5rx2",851,"154.csv","","985.0000000001164","resources/trios/L2T2A1.jpg","38","restless",0.4,0.7,0.5,0.958374871619556,"false"
"image-keyboard-response",582,696445,"0.0-3.190-1.190","476v5ewupks5rx2",851,"154.csv","","null","resources/maskTrios/BT2B.jpg","null","",NA,NA,NA,NA,""
"image-keyboard-response",583,697650,"0.0-3.190-2.190","476v5ewupks5rx2",851,"154.csv","","null","resources/images/fishbone.png","null","",NA,NA,NA,NA,""
"image-keyboard-response",584,698678,"0.0-3.191-0.191","476v5ewupks5rx2",851,"154.csv","","1023","resources/trios/L2T1A2.jpg","37","restless",0.4,0.7,0.5,0.286856187275787,"true"
"image-keyboard-response",585,699082,"0.0-3.191-1.191","476v5ewupks5rx2",851,"154.csv","","null","resources/maskTrios/L2BB.jpg","null","",NA,NA,NA,NA,""
"image-keyboard-response",586,700288,"0.0-3.191-2.191","476v5ewupks5rx2",851,"154.csv","","null","resources/images/coin2.png","null","",NA,NA,NA,NA,""
"image-keyboard-response",587,700887,"0.0-3.192-0.192","476v5ewupks5rx2",851,"154.csv","","594","resources/trios/L2T2A2.jpg","38","restless",0.4,0.7,0.5,0.713984567107233,"false"
"image-keyboard-response",588,701291,"0.0-3.192-1.192","476v5ewupks5rx2",851,"154.csv","","null","resources/maskTrios/BT2B.jpg","null","",NA,NA,NA,NA,""
"image-keyboard-response",589,702506,"0.0-3.192-2.192","476v5ewupks5rx2",851,"154.csv","","null","resources/images/fishbone.png","null","",NA,NA,NA,NA,""
"image-keyboard-response",590,703387,"0.0-3.193-0.193","476v5ewupks5rx2",851,"154.csv","","875","resources/trios/L2T2A1.jpg","37","restless",0.4,0.7,0.5,0.0869290383285262,"true"
"image-keyboard-response",591,703791,"0.0-3.193-1.193","476v5ewupks5rx2",851,"154.csv","","null","resources/maskTrios/L2BB.jpg","null","",NA,NA,NA,NA,""
"image-keyboard-response",592,704997,"0.0-3.193-2.193","476v5ewupks5rx2",851,"154.csv","","null","resources/images/coin2.png","null","",NA,NA,NA,NA,""
"image-keyboard-response",593,705811,"0.0-3.194-0.194","476v5ewupks5rx2",851,"154.csv","","809","resources/trios/L4T1A2.jpg","38","restless",0.4,0.7,0.5,0.890702475889028,"false"
"image-keyboard-response",594,706214,"0.0-3.194-1.194","476v5ewupks5rx2",851,"154.csv","","null","resources/maskTrios/BT1B.jpg","null","",NA,NA,NA,NA,""
"image-keyboard-response",595,707419,"0.0-3.194-2.194","476v5ewupks5rx2",851,"154.csv","","null","resources/images/fishbone.png","null","",NA,NA,NA,NA,""
"image-keyboard-response",596,708546,"0.0-3.195-0.195","476v5ewupks5rx2",851,"154.csv","","1122","resources/trios/L2T2A1.jpg","38","restless",0.4,0.7,0.5,0.912417132460756,"false"
"image-keyboard-response",597,708950,"0.0-3.195-1.195","476v5ewupks5rx2",851,"154.csv","","null","resources/maskTrios/BT2B.jpg","null","",NA,NA,NA,NA,""
"image-keyboard-response",598,710156,"0.0-3.195-2.195","476v5ewupks5rx2",851,"154.csv","","null","resources/images/fishbone.png","null","",NA,NA,NA,NA,""
"image-keyboard-response",599,711295,"0.0-3.196-0.196","476v5ewupks5rx2",851,"154.csv","","1134.0000000001164","resources/trios/L4T1A2.jpg","38","restless",0.4,0.7,0.5,0.332416781535029,"true"
"image-keyboard-response",600,711699,"0.0-3.196-1.196","476v5ewupks5rx2",851,"154.csv","","null","resources/maskTrios/BT1B.jpg","null","",NA,NA,NA,NA,""
"image-keyboard-response",601,712904,"0.0-3.196-2.196","476v5ewupks5rx2",851,"154.csv","","null","resources/images/coin2.png","null","",NA,NA,NA,NA,""
"image-keyboard-response",602,714811,"0.0-3.197-0.197","476v5ewupks5rx2",851,"154.csv","","1903","resources/trios/L2T2A1.jpg","38","restless",0.4,0.7,0.5,0.525017650924436,"true"
"image-keyboard-response",603,715216,"0.0-3.197-1.197","476v5ewupks5rx2",851,"154.csv","","null","resources/maskTrios/BT2B.jpg","null","",NA,NA,NA,NA,""
"image-keyboard-response",604,716421,"0.0-3.197-2.197","476v5ewupks5rx2",851,"154.csv","","null","resources/images/coin2.png","null","",NA,NA,NA,NA,""
"image-keyboard-response",605,717451,"0.0-3.198-0.198","476v5ewupks5rx2",851,"154.csv","","1026","resources/trios/L4T1A2.jpg","39","restless",0.4,0.7,0.5,0.0567678093427033,"true"
"image-keyboard-response",606,717855,"0.0-3.198-1.198","476v5ewupks5rx2",851,"154.csv","","null","resources/maskTrios/BBA2.jpg","null","",NA,NA,NA,NA,""
"image-keyboard-response",607,719060,"0.0-3.198-2.198","476v5ewupks5rx2",851,"154.csv","","null","resources/images/coin2.png","null","",NA,NA,NA,NA,""
"image-keyboard-response",608,719938,"0.0-3.199-0.199","476v5ewupks5rx2",851,"154.csv","","873","resources/trios/L4T1A2.jpg","39","restless",0.4,0.7,0.5,0.848826329033099,"false"
"image-keyboard-response",609,720342,"0.0-3.199-1.199","476v5ewupks5rx2",851,"154.csv","","null","resources/maskTrios/BBA2.jpg","null","",NA,NA,NA,NA,""
"image-keyboard-response",610,721547,"0.0-3.199-2.199","476v5ewupks5rx2",851,"154.csv","","null","resources/images/fishbone.png","null","",NA,NA,NA,NA,""
"image-keyboard-response",611,721957,"0.0-3.200-0.200","476v5ewupks5rx2",851,"154.csv","","399","resources/trios/L4T2A1.jpg","37","restless",0.4,0.7,0.5,0.326729576013694,"true"
"image-keyboard-response",612,722362,"0.0-3.200-1.200","476v5ewupks5rx2",851,"154.csv","","null","resources/maskTrios/L4BB.jpg","null","",NA,NA,NA,NA,""
"image-keyboard-response",613,723568,"0.0-3.200-2.200","476v5ewupks5rx2",851,"154.csv","","null","resources/images/coin2.png","null","",NA,NA,NA,NA,""
"image-keyboard-response",614,724808,"0.0-3.201-0.201","476v5ewupks5rx2",851,"154.csv","","1234.9999999998836","resources/trios/L4T2A2.jpg","37","restless",0.4,0.7,0.5,0.18224883585354,"true"
"image-keyboard-response",615,725212,"0.0-3.201-1.201","476v5ewupks5rx2",851,"154.csv","","null","resources/maskTrios/L4BB.jpg","null","",NA,NA,NA,NA,""
"image-keyboard-response",616,726418,"0.0-3.201-2.201","476v5ewupks5rx2",851,"154.csv","","null","resources/images/coin2.png","null","",NA,NA,NA,NA,""
