"trial_type","trial_index","time_elapsed","internal_node_id","subject","participantCode","walkNumber","success","rt","stimulus","key_press","test_part","leftProb","midProb","rightProb","generatedNum","correct"
"pavlovia",0,1239,"0.0-0.0","fq5qqq93avqu1rf",403,"160.csv","","","","","",NA,NA,NA,NA,""
"fullscreen",1,5810,"0.0-1.0","fq5qqq93avqu1rf",403,"160.csv","true","","","","",NA,NA,NA,NA,""
"html-keyboard-response",2,10970,"0.0-2.0-0.0","fq5qqq93avqu1rf",403,"160.csv","","5158","<p><font size='6'>Arrrgh!</p></font><p>Can you be the best pirate? Try to find lots of gold! But beware, some islands have more gold than others, and over time, the island with the most gold may change. Can YOU figure it out? </p><font size='6'>GOOD LUCK, CAPTAIN!!!</font><p>Press any key to begin</p>","32","",NA,NA,NA,NA,""
"image-keyboard-response",3,13981,"0.0-2.0-1.0","fq5qqq93avqu1rf",403,"160.csv","","null","resources/image_sets/111.png","null","",NA,NA,NA,NA,""
"image-keyboard-response",4,26242,"0.0-2.0-2.0","fq5qqq93avqu1rf",403,"160.csv","","12258.600000143051","resources/image_sets/left_highlight.png","37","",NA,NA,NA,NA,""
"image-keyboard-response",5,33605,"0.0-2.0-3.0","fq5qqq93avqu1rf",403,"160.csv","","7361","resources/image_sets/mid_highlight.png","38","",NA,NA,NA,NA,""
"image-keyboard-response",6,37819,"0.0-2.0-4.0","fq5qqq93avqu1rf",403,"160.csv","","4212.799999952316","resources/image_sets/right_highlight.png","39","",NA,NA,NA,NA,""
"image-keyboard-response",7,43784,"0.0-2.0-5.0","fq5qqq93avqu1rf",403,"160.csv","","5962.900000095367","resources/image_sets/111.png","13","",NA,NA,NA,NA,""
"image-keyboard-response",8,46556,"0.0-2.0-6.0","fq5qqq93avqu1rf",403,"160.csv","","2771.7000000476837","resources/images/coin2.png","13","",NA,NA,NA,NA,""
"image-keyboard-response",9,48215,"0.0-2.0-7.0","fq5qqq93avqu1rf",403,"160.csv","","1657.2000000476837","resources/images/fishbone.png","13","",NA,NA,NA,NA,""
"html-keyboard-response",10,50915,"0.0-2.0-8.0","fq5qqq93avqu1rf",403,"160.csv","","2699.0999999046326","<p>Your first journey will be a long one, but you will get a well deserved break at the end</p><p>After the break you will have four more journeys, but each will be much shorter than the first, and you will have breaks in between each</p><p>Press Enter to begin</p>","13","",NA,NA,NA,NA,""
"image-keyboard-response",11,52373,"0.0-3.0-0.0","fq5qqq93avqu1rf",403,"160.csv","","1456.2000000476837","resources/trios/L1T1A1.jpg","37","restless",0.9,0.7,0.3,0.69299353044468,"true"
"image-keyboard-response",12,52791,"0.0-3.0-1.0","fq5qqq93avqu1rf",403,"160.csv","","null","resources/maskTrios/L1BB.jpg","null","",NA,NA,NA,NA,""
"image-keyboard-response",13,54014,"0.0-3.0-2.0","fq5qqq93avqu1rf",403,"160.csv","","null","resources/images/coin2.png","null","",NA,NA,NA,NA,""
"image-keyboard-response",14,57970,"0.0-3.1-0.1","fq5qqq93avqu1rf",403,"160.csv","","3954","resources/trios/L2T1A1.jpg","37","restless",0.8,0.7,0.3,0.859085869796603,"false"
"image-keyboard-response",15,58377,"0.0-3.1-1.1","fq5qqq93avqu1rf",403,"160.csv","","null","resources/maskTrios/L2BB.jpg","null","",NA,NA,NA,NA,""
"image-keyboard-response",16,59599,"0.0-3.1-2.1","fq5qqq93avqu1rf",403,"160.csv","","null","resources/images/fishbone.png","null","",NA,NA,NA,NA,""
"image-keyboard-response",17,61474,"0.0-3.2-0.2","fq5qqq93avqu1rf",403,"160.csv","","1872.7000000476837","resources/trios/L2T4A3.jpg","38","restless",0.8,0.7,0.3,0.863444745750371,"false"
"image-keyboard-response",18,61882,"0.0-3.2-1.2","fq5qqq93avqu1rf",403,"160.csv","","null","resources/maskTrios/BT4B.jpg","null","",NA,NA,NA,NA,""
"image-keyboard-response",19,63091,"0.0-3.2-2.2","fq5qqq93avqu1rf",403,"160.csv","","null","resources/images/fishbone.png","null","",NA,NA,NA,NA,""
"image-keyboard-response",20,64557,"0.0-3.3-0.3","fq5qqq93avqu1rf",403,"160.csv","","1464.7999999523163","resources/trios/L2T4A1.jpg","37","restless",0.7,0.7,0.2,0.490735182924698,"true"
"image-keyboard-response",21,64974,"0.0-3.3-1.3","fq5qqq93avqu1rf",403,"160.csv","","null","resources/maskTrios/L2BB.jpg","null","",NA,NA,NA,NA,""
"image-keyboard-response",22,66181,"0.0-3.3-2.3","fq5qqq93avqu1rf",403,"160.csv","","null","resources/images/coin2.png","null","",NA,NA,NA,NA,""
"image-keyboard-response",23,66947,"0.0-3.4-0.4","fq5qqq93avqu1rf",403,"160.csv","","764.5","resources/trios/L2T4A1.jpg","39","restless",0.7,0.7,0.1,0.163697002733681,"false"
"image-keyboard-response",24,67366,"0.0-3.4-1.4","fq5qqq93avqu1rf",403,"160.csv","","null","resources/maskTrios/BBA1.jpg","null","",NA,NA,NA,NA,""
"image-keyboard-response",25,68578,"0.0-3.4-2.4","fq5qqq93avqu1rf",403,"160.csv","","null","resources/images/fishbone.png","null","",NA,NA,NA,NA,""
"image-keyboard-response",26,68991,"0.0-3.5-0.5","fq5qqq93avqu1rf",403,"160.csv","","411","resources/trios/L1T1A1.jpg","38","restless",0.7,0.8,0.1,0.418769972283741,"true"
"image-keyboard-response",27,69416,"0.0-3.5-1.5","fq5qqq93avqu1rf",403,"160.csv","","null","resources/maskTrios/BT1B.jpg","null","",NA,NA,NA,NA,""
"image-keyboard-response",28,70633,"0.0-3.5-2.5","fq5qqq93avqu1rf",403,"160.csv","","null","resources/images/coin2.png","null","",NA,NA,NA,NA,""
"image-keyboard-response",29,71243,"0.0-3.6-0.6","fq5qqq93avqu1rf",403,"160.csv","","607.6999998092651","resources/trios/L1T1A1.jpg","38","restless",0.7,0.8,0.1,0.12682690473759,"true"
"image-keyboard-response",30,71652,"0.0-3.6-1.6","fq5qqq93avqu1rf",403,"160.csv","","null","resources/maskTrios/BT1B.jpg","null","",NA,NA,NA,NA,""
"image-keyboard-response",31,72869,"0.0-3.6-2.6","fq5qqq93avqu1rf",403,"160.csv","","null","resources/images/coin2.png","null","",NA,NA,NA,NA,""
"image-keyboard-response",32,73331,"0.0-3.7-0.7","fq5qqq93avqu1rf",403,"160.csv","","460.40000009536743","resources/trios/L2T1A1.jpg","37","restless",0.7,0.8,0.1,0.154316296237612,"true"
"image-keyboard-response",33,73755,"0.0-3.7-1.7","fq5qqq93avqu1rf",403,"160.csv","","null","resources/maskTrios/L2BB.jpg","null","",NA,NA,NA,NA,""
"image-keyboard-response",34,74968,"0.0-3.7-2.7","fq5qqq93avqu1rf",403,"160.csv","","null","resources/images/coin2.png","null","",NA,NA,NA,NA,""
"image-keyboard-response",35,75414,"0.0-3.8-0.8","fq5qqq93avqu1rf",403,"160.csv","","444","resources/trios/L2T4A1.jpg","37","restless",0.7,0.7,0.1,0.434576856996232,"true"
"image-keyboard-response",36,75831,"0.0-3.8-1.8","fq5qqq93avqu1rf",403,"160.csv","","null","resources/maskTrios/L2BB.jpg","null","",NA,NA,NA,NA,""
"image-keyboard-response",37,77042,"0.0-3.8-2.8","fq5qqq93avqu1rf",403,"160.csv","","null","resources/images/coin2.png","null","",NA,NA,NA,NA,""
"image-keyboard-response",38,77533,"0.0-3.9-0.9","fq5qqq93avqu1rf",403,"160.csv","","489.39999985694885","resources/trios/L2T4A3.jpg","39","restless",0.7,0.7,0.1,0.0301443313542378,"true"
"image-keyboard-response",39,77937,"0.0-3.9-1.9","fq5qqq93avqu1rf",403,"160.csv","","null","resources/maskTrios/BBA3.jpg","null","",NA,NA,NA,NA,""
"image-keyboard-response",40,79165,"0.0-3.9-2.9","fq5qqq93avqu1rf",403,"160.csv","","null","resources/images/coin2.png","null","",NA,NA,NA,NA,""
"image-keyboard-response",41,79642,"0.0-3.10-0.10","fq5qqq93avqu1rf",403,"160.csv","","475.59999990463257","resources/trios/L2T4A3.jpg","39","restless",0.7,0.7,0.1,0.098251652348027,"true"
"image-keyboard-response",42,80062,"0.0-3.10-1.10","fq5qqq93avqu1rf",403,"160.csv","","null","resources/maskTrios/BBA3.jpg","null","",NA,NA,NA,NA,""
"image-keyboard-response",43,81280,"0.0-3.10-2.10","fq5qqq93avqu1rf",403,"160.csv","","null","resources/images/coin2.png","null","",NA,NA,NA,NA,""
"image-keyboard-response",44,81739,"0.0-3.11-0.11","fq5qqq93avqu1rf",403,"160.csv","","456.7000000476837","resources/trios/L2T1A3.jpg","38","restless",0.7,0.7,0.2,0.884257460005607,"false"
"image-keyboard-response",45,82163,"0.0-3.11-1.11","fq5qqq93avqu1rf",403,"160.csv","","null","resources/maskTrios/BT1B.jpg","null","",NA,NA,NA,NA,""
"image-keyboard-response",46,83384,"0.0-3.11-2.11","fq5qqq93avqu1rf",403,"160.csv","","null","resources/images/fishbone.png","null","",NA,NA,NA,NA,""
"image-keyboard-response",47,84010,"0.0-3.12-0.12","fq5qqq93avqu1rf",403,"160.csv","","624.7999999523163","resources/trios/L2T4A3.jpg","38","restless",0.7,0.7,0.2,0.293914107711606,"true"
"image-keyboard-response",48,84422,"0.0-3.12-1.12","fq5qqq93avqu1rf",403,"160.csv","","null","resources/maskTrios/BT4B.jpg","null","",NA,NA,NA,NA,""
"image-keyboard-response",49,85639,"0.0-3.12-2.12","fq5qqq93avqu1rf",403,"160.csv","","null","resources/images/coin2.png","null","",NA,NA,NA,NA,""
"image-keyboard-response",50,86171,"0.0-3.13-0.13","fq5qqq93avqu1rf",403,"160.csv","","529.8999998569489","resources/trios/L1T1A1.jpg","39","restless",0.7,0.7,0.2,0.300344275693389,"false"
"image-keyboard-response",51,86592,"0.0-3.13-1.13","fq5qqq93avqu1rf",403,"160.csv","","null","resources/maskTrios/BBA1.jpg","null","",NA,NA,NA,NA,""
"image-keyboard-response",52,87808,"0.0-3.13-2.13","fq5qqq93avqu1rf",403,"160.csv","","null","resources/images/fishbone.png","null","",NA,NA,NA,NA,""
"image-keyboard-response",53,88230,"0.0-3.14-0.14","fq5qqq93avqu1rf",403,"160.csv","","420.59999990463257","resources/trios/L1T1A1.jpg","39","restless",0.7,0.8,0.2,0.297535592253731,"false"
"image-keyboard-response",54,88640,"0.0-3.14-1.14","fq5qqq93avqu1rf",403,"160.csv","","null","resources/maskTrios/BBA1.jpg","null","",NA,NA,NA,NA,""
"image-keyboard-response",55,89861,"0.0-3.14-2.14","fq5qqq93avqu1rf",403,"160.csv","","null","resources/images/fishbone.png","null","",NA,NA,NA,NA,""
"image-keyboard-response",56,90146,"0.0-3.15-0.15","fq5qqq93avqu1rf",403,"160.csv","","283","resources/trios/L1T4A1.jpg","39","restless",0.7,0.8,0.2,0.483629597493371,"false"
"image-keyboard-response",57,90555,"0.0-3.15-1.15","fq5qqq93avqu1rf",403,"160.csv","","null","resources/maskTrios/BBA1.jpg","null","",NA,NA,NA,NA,""
"image-keyboard-response",58,91760,"0.0-3.15-2.15","fq5qqq93avqu1rf",403,"160.csv","","null","resources/images/fishbone.png","null","",NA,NA,NA,NA,""
"image-keyboard-response",59,92155,"0.0-3.16-0.16","fq5qqq93avqu1rf",403,"160.csv","","393","resources/trios/L2T1A1.jpg","38","restless",0.7,0.8,0.3,0.723491931862662,"true"
"image-keyboard-response",60,92564,"0.0-3.16-1.16","fq5qqq93avqu1rf",403,"160.csv","","null","resources/maskTrios/BT1B.jpg","null","",NA,NA,NA,NA,""
"image-keyboard-response",61,93779,"0.0-3.16-2.16","fq5qqq93avqu1rf",403,"160.csv","","null","resources/images/coin2.png","null","",NA,NA,NA,NA,""
"image-keyboard-response",62,94619,"0.0-3.17-0.17","fq5qqq93avqu1rf",403,"160.csv","","838.7000000476837","resources/trios/L2T4A1.jpg","38","restless",0.7,0.8,0.3,0.242917917282535,"true"
"image-keyboard-response",63,95026,"0.0-3.17-1.17","fq5qqq93avqu1rf",403,"160.csv","","null","resources/maskTrios/BT4B.jpg","null","",NA,NA,NA,NA,""
"image-keyboard-response",64,96237,"0.0-3.17-2.17","fq5qqq93avqu1rf",403,"160.csv","","null","resources/images/coin2.png","null","",NA,NA,NA,NA,""
"image-keyboard-response",65,97237,"0.0-3.18-0.18","fq5qqq93avqu1rf",403,"160.csv","","998.1000001430511","resources/trios/L1T4A3.jpg","39","restless",0.7,0.8,0.3,0.969112017368529,"false"
"image-keyboard-response",66,97644,"0.0-3.18-1.18","fq5qqq93avqu1rf",403,"160.csv","","null","resources/maskTrios/BBA3.jpg","null","",NA,NA,NA,NA,""
"image-keyboard-response",67,98852,"0.0-3.18-2.18","fq5qqq93avqu1rf",403,"160.csv","","null","resources/images/fishbone.png","null","",NA,NA,NA,NA,""
"image-keyboard-response",68,99147,"0.0-3.19-0.19","fq5qqq93avqu1rf",403,"160.csv","","292.7999999523163","resources/trios/L1T4A1.jpg","37","restless",0.7,0.8,0.3,0.658145481235902,"true"
"image-keyboard-response",69,99561,"0.0-3.19-1.19","fq5qqq93avqu1rf",403,"160.csv","","null","resources/maskTrios/L1BB.jpg","null","",NA,NA,NA,NA,""
"image-keyboard-response",70,100781,"0.0-3.19-2.19","fq5qqq93avqu1rf",403,"160.csv","","null","resources/images/coin2.png","null","",NA,NA,NA,NA,""
"image-keyboard-response",71,101333,"0.0-3.20-0.20","fq5qqq93avqu1rf",403,"160.csv","","550.4000000953674","resources/trios/L1T1A1.jpg","37","restless",0.7,0.8,0.3,0.417076335659696,"true"
"image-keyboard-response",72,101751,"0.0-3.20-1.20","fq5qqq93avqu1rf",403,"160.csv","","null","resources/maskTrios/L1BB.jpg","null","",NA,NA,NA,NA,""
"image-keyboard-response",73,102970,"0.0-3.20-2.20","fq5qqq93avqu1rf",403,"160.csv","","null","resources/images/coin2.png","null","",NA,NA,NA,NA,""
"image-keyboard-response",74,103459,"0.0-3.21-0.21","fq5qqq93avqu1rf",403,"160.csv","","487","resources/trios/L1T4A1.jpg","37","restless",0.7,0.9,0.3,0.0211735123496797,"true"
"image-keyboard-response",75,103875,"0.0-3.21-1.21","fq5qqq93avqu1rf",403,"160.csv","","null","resources/maskTrios/L1BB.jpg","null","",NA,NA,NA,NA,""
"image-keyboard-response",76,105086,"0.0-3.21-2.21","fq5qqq93avqu1rf",403,"160.csv","","null","resources/images/coin2.png","null","",NA,NA,NA,NA,""
"image-keyboard-response",77,105474,"0.0-3.22-0.22","fq5qqq93avqu1rf",403,"160.csv","","385.2000000476837","resources/trios/L2T1A1.jpg","38","restless",0.7,0.9,0.3,0.709674984804238,"true"
"image-keyboard-response",78,105880,"0.0-3.22-1.22","fq5qqq93avqu1rf",403,"160.csv","","null","resources/maskTrios/BT1B.jpg","null","",NA,NA,NA,NA,""
"image-keyboard-response",79,107092,"0.0-3.22-2.22","fq5qqq93avqu1rf",403,"160.csv","","null","resources/images/coin2.png","null","",NA,NA,NA,NA,""
"image-keyboard-response",80,107406,"0.0-3.23-0.23","fq5qqq93avqu1rf",403,"160.csv","","311.80000019073486","resources/trios/L2T4A1.jpg","38","restless",0.6,0.9,0.3,0.987009279866403,"false"
"image-keyboard-response",81,107814,"0.0-3.23-1.23","fq5qqq93avqu1rf",403,"160.csv","","null","resources/maskTrios/BT4B.jpg","null","",NA,NA,NA,NA,""
"image-keyboard-response",82,109029,"0.0-3.23-2.23","fq5qqq93avqu1rf",403,"160.csv","","null","resources/images/fishbone.png","null","",NA,NA,NA,NA,""
"image-keyboard-response",83,109073,"0.0-3.24-0.24","fq5qqq93avqu1rf",403,"160.csv","","42.700000047683716","resources/trios/L2T4A3.jpg","37","restless",0.6,0.9,0.3,0.19625273846437,"true"
"image-keyboard-response",84,109495,"0.0-3.24-1.24","fq5qqq93avqu1rf",403,"160.csv","","null","resources/maskTrios/L2BB.jpg","null","",NA,NA,NA,NA,""
"image-keyboard-response",85,110712,"0.0-3.24-2.24","fq5qqq93avqu1rf",403,"160.csv","","null","resources/images/coin2.png","null","",NA,NA,NA,NA,""
"image-keyboard-response",86,111005,"0.0-3.25-0.25","fq5qqq93avqu1rf",403,"160.csv","","291.7000000476837","resources/trios/L2T4A3.jpg","37","restless",0.6,0.8,0.3,0.799090673241845,"false"
"image-keyboard-response",87,111417,"0.0-3.25-1.25","fq5qqq93avqu1rf",403,"160.csv","","null","resources/maskTrios/L2BB.jpg","null","",NA,NA,NA,NA,""
"image-keyboard-response",88,112638,"0.0-3.25-2.25","fq5qqq93avqu1rf",403,"160.csv","","null","resources/images/fishbone.png","null","",NA,NA,NA,NA,""
"image-keyboard-response",89,112783,"0.0-3.26-0.26","fq5qqq93avqu1rf",403,"160.csv","","143.20000004768372","resources/trios/L2T4A1.jpg","39","restless",0.6,0.8,0.3,0.955485775799344,"false"
"image-keyboard-response",90,113205,"0.0-3.26-1.26","fq5qqq93avqu1rf",403,"160.csv","","null","resources/maskTrios/BBA1.jpg","null","",NA,NA,NA,NA,""
"image-keyboard-response",91,114420,"0.0-3.26-2.26","fq5qqq93avqu1rf",403,"160.csv","","null","resources/images/fishbone.png","null","",NA,NA,NA,NA,""
"image-keyboard-response",92,114672,"0.0-3.27-0.27","fq5qqq93avqu1rf",403,"160.csv","","250.40000009536743","resources/trios/L2T4A3.jpg","38","restless",0.6,0.8,0.3,0.670901630321187,"true"
"image-keyboard-response",93,115083,"0.0-3.27-1.27","fq5qqq93avqu1rf",403,"160.csv","","null","resources/maskTrios/BT4B.jpg","null","",NA,NA,NA,NA,""
"image-keyboard-response",94,116291,"0.0-3.27-2.27","fq5qqq93avqu1rf",403,"160.csv","","null","resources/images/coin2.png","null","",NA,NA,NA,NA,""
"image-keyboard-response",95,116647,"0.0-3.28-0.28","fq5qqq93avqu1rf",403,"160.csv","","353.5","resources/trios/L1T4A1.jpg","37","restless",0.7,0.8,0.3,0.523909939951851,"true"
"image-keyboard-response",96,117068,"0.0-3.28-1.28","fq5qqq93avqu1rf",403,"160.csv","","null","resources/maskTrios/L1BB.jpg","null","",NA,NA,NA,NA,""
"image-keyboard-response",97,118285,"0.0-3.28-2.28","fq5qqq93avqu1rf",403,"160.csv","","null","resources/images/coin2.png","null","",NA,NA,NA,NA,""
"image-keyboard-response",98,118604,"0.0-3.29-0.29","fq5qqq93avqu1rf",403,"160.csv","","316","resources/trios/L1T4A3.jpg","37","restless",0.7,0.7,0.3,0.280665613164361,"true"
"image-keyboard-response",99,119020,"0.0-3.29-1.29","fq5qqq93avqu1rf",403,"160.csv","","null","resources/maskTrios/L1BB.jpg","null","",NA,NA,NA,NA,""
"image-keyboard-response",100,120240,"0.0-3.29-2.29","fq5qqq93avqu1rf",403,"160.csv","","null","resources/images/coin2.png","null","",NA,NA,NA,NA,""
"image-keyboard-response",101,121016,"0.0-3.30-0.30","fq5qqq93avqu1rf",403,"160.csv","","773.5","resources/trios/L1T4A1.jpg","38","restless",0.7,0.7,0.3,0.26013138516083,"true"
"image-keyboard-response",102,121438,"0.0-3.30-1.30","fq5qqq93avqu1rf",403,"160.csv","","null","resources/maskTrios/BT4B.jpg","null","",NA,NA,NA,NA,""
"image-keyboard-response",103,122641,"0.0-3.30-2.30","fq5qqq93avqu1rf",403,"160.csv","","null","resources/images/coin2.png","null","",NA,NA,NA,NA,""
"image-keyboard-response",104,123226,"0.0-3.31-0.31","fq5qqq93avqu1rf",403,"160.csv","","582.2999999523163","resources/trios/L2T1A3.jpg","37","restless",0.7,0.7,0.3,0.525647173757572,"true"
"image-keyboard-response",105,123640,"0.0-3.31-1.31","fq5qqq93avqu1rf",403,"160.csv","","null","resources/maskTrios/L2BB.jpg","null","",NA,NA,NA,NA,""
"image-keyboard-response",106,124864,"0.0-3.31-2.31","fq5qqq93avqu1rf",403,"160.csv","","null","resources/images/coin2.png","null","",NA,NA,NA,NA,""
"image-keyboard-response",107,125664,"0.0-3.32-0.32","fq5qqq93avqu1rf",403,"160.csv","","798","resources/trios/L2T1A1.jpg","38","restless",0.7,0.7,0.4,0.211708337574836,"true"
"image-keyboard-response",108,126078,"0.0-3.32-1.32","fq5qqq93avqu1rf",403,"160.csv","","null","resources/maskTrios/BT1B.jpg","null","",NA,NA,NA,NA,""
"image-keyboard-response",109,127288,"0.0-3.32-2.32","fq5qqq93avqu1rf",403,"160.csv","","null","resources/images/coin2.png","null","",NA,NA,NA,NA,""
"image-keyboard-response",110,127690,"0.0-3.33-0.33","fq5qqq93avqu1rf",403,"160.csv","","400","resources/trios/L1T1A3.jpg","38","restless",0.7,0.6,0.4,0.185198816286148,"true"
"image-keyboard-response",111,128111,"0.0-3.33-1.33","fq5qqq93avqu1rf",403,"160.csv","","null","resources/maskTrios/BT1B.jpg","null","",NA,NA,NA,NA,""
"image-keyboard-response",112,129324,"0.0-3.33-2.33","fq5qqq93avqu1rf",403,"160.csv","","null","resources/images/coin2.png","null","",NA,NA,NA,NA,""
"image-keyboard-response",113,129920,"0.0-3.34-0.34","fq5qqq93avqu1rf",403,"160.csv","","593.8000001907349","resources/trios/L2T4A1.jpg","37","restless",0.7,0.6,0.4,0.253077606754899,"true"
"image-keyboard-response",114,130336,"0.0-3.34-1.34","fq5qqq93avqu1rf",403,"160.csv","","null","resources/maskTrios/L2BB.jpg","null","",NA,NA,NA,NA,""
"image-keyboard-response",115,131549,"0.0-3.34-2.34","fq5qqq93avqu1rf",403,"160.csv","","null","resources/images/coin2.png","null","",NA,NA,NA,NA,""
"image-keyboard-response",116,132155,"0.0-3.35-0.35","fq5qqq93avqu1rf",403,"160.csv","","603.4000000953674","resources/trios/L2T1A3.jpg","39","restless",0.7,0.6,0.5,0.54135752539813,"false"
"image-keyboard-response",117,132569,"0.0-3.35-1.35","fq5qqq93avqu1rf",403,"160.csv","","null","resources/maskTrios/BBA3.jpg","null","",NA,NA,NA,NA,""
"image-keyboard-response",118,133792,"0.0-3.35-2.35","fq5qqq93avqu1rf",403,"160.csv","","null","resources/images/fishbone.png","null","",NA,NA,NA,NA,""
"image-keyboard-response",119,134051,"0.0-3.36-0.36","fq5qqq93avqu1rf",403,"160.csv","","257","resources/trios/L2T1A3.jpg","37","restless",0.7,0.6,0.5,0.0674904964713356,"true"
"image-keyboard-response",120,134464,"0.0-3.36-1.36","fq5qqq93avqu1rf",403,"160.csv","","null","resources/maskTrios/L2BB.jpg","null","",NA,NA,NA,NA,""
"image-keyboard-response",121,135677,"0.0-3.36-2.36","fq5qqq93avqu1rf",403,"160.csv","","null","resources/images/coin2.png","null","",NA,NA,NA,NA,""
"image-keyboard-response",122,135830,"0.0-3.37-0.37","fq5qqq93avqu1rf",403,"160.csv","","151.5","resources/trios/L1T1A1.jpg","37","restless",0.7,0.6,0.5,0.292652147632921,"true"
"image-keyboard-response",123,136235,"0.0-3.37-1.37","fq5qqq93avqu1rf",403,"160.csv","","null","resources/maskTrios/L1BB.jpg","null","",NA,NA,NA,NA,""
"image-keyboard-response",124,137453,"0.0-3.37-2.37","fq5qqq93avqu1rf",403,"160.csv","","null","resources/images/coin2.png","null","",NA,NA,NA,NA,""
"image-keyboard-response",125,137605,"0.0-3.38-0.38","fq5qqq93avqu1rf",403,"160.csv","","149","resources/trios/L2T4A1.jpg","37","restless",0.7,0.6,0.6,0.935127978276298,"false"
"image-keyboard-response",126,138015,"0.0-3.38-1.38","fq5qqq93avqu1rf",403,"160.csv","","null","resources/maskTrios/L2BB.jpg","null","",NA,NA,NA,NA,""
"image-keyboard-response",127,139236,"0.0-3.38-2.38","fq5qqq93avqu1rf",403,"160.csv","","null","resources/images/fishbone.png","null","",NA,NA,NA,NA,""
"image-keyboard-response",128,139266,"0.0-3.39-0.39","fq5qqq93avqu1rf",403,"160.csv","","27.299999952316284","resources/trios/L1T1A3.jpg","39","restless",0.7,0.5,0.5,0.725141529847051,"false"
"image-keyboard-response",129,139684,"0.0-3.39-1.39","fq5qqq93avqu1rf",403,"160.csv","","null","resources/maskTrios/BBA3.jpg","null","",NA,NA,NA,NA,""
"image-keyboard-response",130,140899,"0.0-3.39-2.39","fq5qqq93avqu1rf",403,"160.csv","","null","resources/images/fishbone.png","null","",NA,NA,NA,NA,""
"image-keyboard-response",131,140922,"0.0-3.40-0.40","fq5qqq93avqu1rf",403,"160.csv","","21","resources/trios/L2T4A1.jpg","39","restless",0.7,0.6,0.5,0.227551247177579,"true"
"image-keyboard-response",132,141336,"0.0-3.40-1.40","fq5qqq93avqu1rf",403,"160.csv","","null","resources/maskTrios/BBA1.jpg","null","",NA,NA,NA,NA,""
"image-keyboard-response",133,142547,"0.0-3.40-2.40","fq5qqq93avqu1rf",403,"160.csv","","null","resources/images/coin2.png","null","",NA,NA,NA,NA,""
"image-keyboard-response",134,142772,"0.0-3.41-0.41","fq5qqq93avqu1rf",403,"160.csv","","223.30000019073486","resources/trios/L2T4A1.jpg","39","restless",0.7,0.6,0.5,0.46873735075094,"true"
"image-keyboard-response",135,143191,"0.0-3.41-1.41","fq5qqq93avqu1rf",403,"160.csv","","null","resources/maskTrios/BBA1.jpg","null","",NA,NA,NA,NA,""
"image-keyboard-response",136,144411,"0.0-3.41-2.41","fq5qqq93avqu1rf",403,"160.csv","","null","resources/images/coin2.png","null","",NA,NA,NA,NA,""
"image-keyboard-response",137,144764,"0.0-3.42-0.42","fq5qqq93avqu1rf",403,"160.csv","","351","resources/trios/L2T4A1.jpg","38","restless",0.7,0.6,0.5,0.525658171490755,"true"
"image-keyboard-response",138,145184,"0.0-3.42-1.42","fq5qqq93avqu1rf",403,"160.csv","","null","resources/maskTrios/BT4B.jpg","null","",NA,NA,NA,NA,""
"image-keyboard-response",139,146396,"0.0-3.42-2.42","fq5qqq93avqu1rf",403,"160.csv","","null","resources/images/coin2.png","null","",NA,NA,NA,NA,""
"image-keyboard-response",140,146718,"0.0-3.43-0.43","fq5qqq93avqu1rf",403,"160.csv","","319.59999990463257","resources/trios/L1T1A3.jpg","38","restless",0.7,0.5,0.5,0.145063154790714,"true"
"image-keyboard-response",141,147126,"0.0-3.43-1.43","fq5qqq93avqu1rf",403,"160.csv","","null","resources/maskTrios/BT1B.jpg","null","",NA,NA,NA,NA,""
"image-keyboard-response",142,148343,"0.0-3.43-2.43","fq5qqq93avqu1rf",403,"160.csv","","null","resources/images/coin2.png","null","",NA,NA,NA,NA,""
"image-keyboard-response",143,148835,"0.0-3.44-0.44","fq5qqq93avqu1rf",403,"160.csv","","490.09999990463257","resources/trios/L2T4A3.jpg","38","restless",0.7,0.5,0.5,0.102115468875578,"true"
"image-keyboard-response",144,149243,"0.0-3.44-1.44","fq5qqq93avqu1rf",403,"160.csv","","null","resources/maskTrios/BT4B.jpg","null","",NA,NA,NA,NA,""
"image-keyboard-response",145,150452,"0.0-3.44-2.44","fq5qqq93avqu1rf",403,"160.csv","","null","resources/images/coin2.png","null","",NA,NA,NA,NA,""
"image-keyboard-response",146,151029,"0.0-3.45-0.45","fq5qqq93avqu1rf",403,"160.csv","","574.3999998569489","resources/trios/L2T1A3.jpg","37","restless",0.7,0.5,0.5,0.169437878078696,"true"
"image-keyboard-response",147,151447,"0.0-3.45-1.45","fq5qqq93avqu1rf",403,"160.csv","","null","resources/maskTrios/L2BB.jpg","null","",NA,NA,NA,NA,""
"image-keyboard-response",148,152666,"0.0-3.45-2.45","fq5qqq93avqu1rf",403,"160.csv","","null","resources/images/coin2.png","null","",NA,NA,NA,NA,""
"image-keyboard-response",149,153112,"0.0-3.46-0.46","fq5qqq93avqu1rf",403,"160.csv","","444.7999999523163","resources/trios/L1T1A3.jpg","37","restless",0.7,0.5,0.5,0.119407580262418,"true"
"image-keyboard-response",150,153530,"0.0-3.46-1.46","fq5qqq93avqu1rf",403,"160.csv","","null","resources/maskTrios/L1BB.jpg","null","",NA,NA,NA,NA,""
"image-keyboard-response",151,154740,"0.0-3.46-2.46","fq5qqq93avqu1rf",403,"160.csv","","null","resources/images/coin2.png","null","",NA,NA,NA,NA,""
"image-keyboard-response",152,155569,"0.0-3.47-0.47","fq5qqq93avqu1rf",403,"160.csv","","826.5999999046326","resources/trios/L1T1A3.jpg","38","restless",0.7,0.4,0.5,0.389415639566284,"true"
"image-keyboard-response",153,155989,"0.0-3.47-1.47","fq5qqq93avqu1rf",403,"160.csv","","null","resources/maskTrios/BT1B.jpg","null","",NA,NA,NA,NA,""
"image-keyboard-response",154,157202,"0.0-3.47-2.47","fq5qqq93avqu1rf",403,"160.csv","","null","resources/images/coin2.png","null","",NA,NA,NA,NA,""
"image-keyboard-response",155,157718,"0.0-3.48-0.48","fq5qqq93avqu1rf",403,"160.csv","","514.3999998569489","resources/trios/L2T4A3.jpg","38","restless",0.7,0.4,0.5,0.889189851330187,"false"
"image-keyboard-response",156,158131,"0.0-3.48-1.48","fq5qqq93avqu1rf",403,"160.csv","","null","resources/maskTrios/BT4B.jpg","null","",NA,NA,NA,NA,""
"image-keyboard-response",157,159349,"0.0-3.48-2.48","fq5qqq93avqu1rf",403,"160.csv","","null","resources/images/fishbone.png","null","",NA,NA,NA,NA,""
"image-keyboard-response",158,159851,"0.0-3.49-0.49","fq5qqq93avqu1rf",403,"160.csv","","499.60000014305115","resources/trios/L2T1A3.jpg","38","restless",0.7,0.4,0.5,0.224352724362948,"true"
"image-keyboard-response",159,160266,"0.0-3.49-1.49","fq5qqq93avqu1rf",403,"160.csv","","null","resources/maskTrios/BT1B.jpg","null","",NA,NA,NA,NA,""
"image-keyboard-response",160,161473,"0.0-3.49-2.49","fq5qqq93avqu1rf",403,"160.csv","","null","resources/images/coin2.png","null","",NA,NA,NA,NA,""
"image-keyboard-response",161,162004,"0.0-3.50-0.50","fq5qqq93avqu1rf",403,"160.csv","","529.5999999046326","resources/trios/L2T4A3.jpg","38","restless",0.7,0.4,0.5,0.174500170848348,"true"
"image-keyboard-response",162,162414,"0.0-3.50-1.50","fq5qqq93avqu1rf",403,"160.csv","","null","resources/maskTrios/BT4B.jpg","null","",NA,NA,NA,NA,""
"image-keyboard-response",163,163632,"0.0-3.50-2.50","fq5qqq93avqu1rf",403,"160.csv","","null","resources/images/coin2.png","null","",NA,NA,NA,NA,""
"image-keyboard-response",164,164148,"0.0-3.51-0.51","fq5qqq93avqu1rf",403,"160.csv","","514.8999998569489","resources/trios/L2T1A3.jpg","38","restless",0.7,0.4,0.5,0.664504689646604,"false"
"image-keyboard-response",165,164557,"0.0-3.51-1.51","fq5qqq93avqu1rf",403,"160.csv","","null","resources/maskTrios/BT1B.jpg","null","",NA,NA,NA,NA,""
"image-keyboard-response",166,165770,"0.0-3.51-2.51","fq5qqq93avqu1rf",403,"160.csv","","null","resources/images/fishbone.png","null","",NA,NA,NA,NA,""
"image-keyboard-response",167,166102,"0.0-3.52-0.52","fq5qqq93avqu1rf",403,"160.csv","","329.7999999523163","resources/trios/L1T1A1.jpg","39","restless",0.7,0.4,0.5,0.220336893340732,"true"
"image-keyboard-response",168,166517,"0.0-3.52-1.52","fq5qqq93avqu1rf",403,"160.csv","","null","resources/maskTrios/BBA1.jpg","null","",NA,NA,NA,NA,""
"image-keyboard-response",169,167723,"0.0-3.52-2.52","fq5qqq93avqu1rf",403,"160.csv","","null","resources/images/coin2.png","null","",NA,NA,NA,NA,""
"image-keyboard-response",170,168145,"0.0-3.53-0.53","fq5qqq93avqu1rf",403,"160.csv","","420.2000000476837","resources/trios/L2T4A1.jpg","39","restless",0.7,0.4,0.5,0.810878311616764,"false"
"image-keyboard-response",171,168559,"0.0-3.53-1.53","fq5qqq93avqu1rf",403,"160.csv","","null","resources/maskTrios/BBA1.jpg","null","",NA,NA,NA,NA,""
"image-keyboard-response",172,169775,"0.0-3.53-2.53","fq5qqq93avqu1rf",403,"160.csv","","null","resources/images/fishbone.png","null","",NA,NA,NA,NA,""
"image-keyboard-response",173,169872,"0.0-3.54-0.54","fq5qqq93avqu1rf",403,"160.csv","","94.90000009536743","resources/trios/L1T1A1.jpg","39","restless",0.7,0.4,0.5,0.933932942204887,"false"
"image-keyboard-response",174,170286,"0.0-3.54-1.54","fq5qqq93avqu1rf",403,"160.csv","","null","resources/maskTrios/BBA1.jpg","null","",NA,NA,NA,NA,""
"image-keyboard-response",175,171491,"0.0-3.54-2.54","fq5qqq93avqu1rf",403,"160.csv","","null","resources/images/fishbone.png","null","",NA,NA,NA,NA,""
"image-keyboard-response",176,172270,"0.0-3.55-0.55","fq5qqq93avqu1rf",403,"160.csv","","776.2999999523163","resources/trios/L2T4A3.jpg","37","restless",0.7,0.4,0.5,0.822444883340336,"false"
"image-keyboard-response",177,172683,"0.0-3.55-1.55","fq5qqq93avqu1rf",403,"160.csv","","null","resources/maskTrios/L2BB.jpg","null","",NA,NA,NA,NA,""
"image-keyboard-response",178,173903,"0.0-3.55-2.55","fq5qqq93avqu1rf",403,"160.csv","","null","resources/images/fishbone.png","null","",NA,NA,NA,NA,""
"image-keyboard-response",179,174315,"0.0-3.56-0.56","fq5qqq93avqu1rf",403,"160.csv","","411","resources/trios/L2T1A1.jpg","38","restless",0.7,0.4,0.5,0.0856538054661071,"true"
"image-keyboard-response",180,174730,"0.0-3.56-1.56","fq5qqq93avqu1rf",403,"160.csv","","null","resources/maskTrios/BT1B.jpg","null","",NA,NA,NA,NA,""
"image-keyboard-response",181,175943,"0.0-3.56-2.56","fq5qqq93avqu1rf",403,"160.csv","","null","resources/images/coin2.png","null","",NA,NA,NA,NA,""
"image-keyboard-response",182,176294,"0.0-3.57-0.57","fq5qqq93avqu1rf",403,"160.csv","","349","resources/trios/L2T1A3.jpg","38","restless",0.6,0.4,0.5,0.436982594522494,"false"
"image-keyboard-response",183,176705,"0.0-3.57-1.57","fq5qqq93avqu1rf",403,"160.csv","","null","resources/maskTrios/BT1B.jpg","null","",NA,NA,NA,NA,""
"image-keyboard-response",184,177922,"0.0-3.57-2.57","fq5qqq93avqu1rf",403,"160.csv","","null","resources/images/fishbone.png","null","",NA,NA,NA,NA,""
"image-keyboard-response",185,178321,"0.0-3.58-0.58","fq5qqq93avqu1rf",403,"160.csv","","396.59999990463257","resources/trios/L2T1A3.jpg","39","restless",0.6,0.4,0.5,0.20921428092511,"true"
"image-keyboard-response",186,178742,"0.0-3.58-1.58","fq5qqq93avqu1rf",403,"160.csv","","null","resources/maskTrios/BBA3.jpg","null","",NA,NA,NA,NA,""
"image-keyboard-response",187,179960,"0.0-3.58-2.58","fq5qqq93avqu1rf",403,"160.csv","","null","resources/images/coin2.png","null","",NA,NA,NA,NA,""
"image-keyboard-response",188,180121,"0.0-3.59-0.59","fq5qqq93avqu1rf",403,"160.csv","","159.5","resources/trios/L2T4A3.jpg","39","restless",0.6,0.4,0.5,0.454926116328065,"true"
"image-keyboard-response",189,180534,"0.0-3.59-1.59","fq5qqq93avqu1rf",403,"160.csv","","null","resources/maskTrios/BBA3.jpg","null","",NA,NA,NA,NA,""
"image-keyboard-response",190,181748,"0.0-3.59-2.59","fq5qqq93avqu1rf",403,"160.csv","","null","resources/images/coin2.png","null","",NA,NA,NA,NA,""
"image-keyboard-response",191,182234,"0.0-3.60-0.60","fq5qqq93avqu1rf",403,"160.csv","","484.19999980926514","resources/trios/L2T1A1.jpg","39","restless",0.6,0.4,0.5,0.223839009568039,"true"
"image-keyboard-response",192,182651,"0.0-3.60-1.60","fq5qqq93avqu1rf",403,"160.csv","","null","resources/maskTrios/BBA1.jpg","null","",NA,NA,NA,NA,""
"image-keyboard-response",193,183868,"0.0-3.60-2.60","fq5qqq93avqu1rf",403,"160.csv","","null","resources/images/coin2.png","null","",NA,NA,NA,NA,""
"image-keyboard-response",194,184205,"0.0-3.61-0.61","fq5qqq93avqu1rf",403,"160.csv","","335.10000014305115","resources/trios/L1T1A1.jpg","39","restless",0.6,0.4,0.5,0.265487317253429,"true"
"image-keyboard-response",195,184615,"0.0-3.61-1.61","fq5qqq93avqu1rf",403,"160.csv","","null","resources/maskTrios/BBA1.jpg","null","",NA,NA,NA,NA,""
"image-keyboard-response",196,185817,"0.0-3.61-2.61","fq5qqq93avqu1rf",403,"160.csv","","null","resources/images/coin2.png","null","",NA,NA,NA,NA,""
"image-keyboard-response",197,186302,"0.0-3.62-0.62","fq5qqq93avqu1rf",403,"160.csv","","483.7999999523163","resources/trios/L1T4A1.jpg","37","restless",0.6,0.4,0.5,0.151325857461144,"true"
"image-keyboard-response",198,186716,"0.0-3.62-1.62","fq5qqq93avqu1rf",403,"160.csv","","null","resources/maskTrios/L1BB.jpg","null","",NA,NA,NA,NA,""
"image-keyboard-response",199,187929,"0.0-3.62-2.62","fq5qqq93avqu1rf",403,"160.csv","","null","resources/images/coin2.png","null","",NA,NA,NA,NA,""
"image-keyboard-response",200,188243,"0.0-3.63-0.63","fq5qqq93avqu1rf",403,"160.csv","","311.7999999523163","resources/trios/L2T1A1.jpg","37","restless",0.6,0.4,0.5,0.539005919514993,"true"
"image-keyboard-response",201,188664,"0.0-3.63-1.63","fq5qqq93avqu1rf",403,"160.csv","","null","resources/maskTrios/L2BB.jpg","null","",NA,NA,NA,NA,""
"image-keyboard-response",202,189878,"0.0-3.63-2.63","fq5qqq93avqu1rf",403,"160.csv","","null","resources/images/coin2.png","null","",NA,NA,NA,NA,""
"image-keyboard-response",203,190306,"0.0-3.64-0.64","fq5qqq93avqu1rf",403,"160.csv","","426.10000014305115","resources/trios/L2T1A1.jpg","37","restless",0.6,0.4,0.6,0.79101296775962,"false"
"image-keyboard-response",204,190716,"0.0-3.64-1.64","fq5qqq93avqu1rf",403,"160.csv","","null","resources/maskTrios/L2BB.jpg","null","",NA,NA,NA,NA,""
"image-keyboard-response",205,191924,"0.0-3.64-2.64","fq5qqq93avqu1rf",403,"160.csv","","null","resources/images/fishbone.png","null","",NA,NA,NA,NA,""
"image-keyboard-response",206,192290,"0.0-3.65-0.65","fq5qqq93avqu1rf",403,"160.csv","","363.90000009536743","resources/trios/L1T4A3.jpg","38","restless",0.6,0.4,0.6,0.936898018478658,"false"
"image-keyboard-response",207,192700,"0.0-3.65-1.65","fq5qqq93avqu1rf",403,"160.csv","","null","resources/maskTrios/BT4B.jpg","null","",NA,NA,NA,NA,""
"image-keyboard-response",208,193912,"0.0-3.65-2.65","fq5qqq93avqu1rf",403,"160.csv","","null","resources/images/fishbone.png","null","",NA,NA,NA,NA,""
"image-keyboard-response",209,194304,"0.0-3.66-0.66","fq5qqq93avqu1rf",403,"160.csv","","389.90000009536743","resources/trios/L1T1A1.jpg","38","restless",0.6,0.4,0.6,0.581294897951971,"false"
"image-keyboard-response",210,194728,"0.0-3.66-1.66","fq5qqq93avqu1rf",403,"160.csv","","null","resources/maskTrios/BT1B.jpg","null","",NA,NA,NA,NA,""
"image-keyboard-response",211,195947,"0.0-3.66-2.66","fq5qqq93avqu1rf",403,"160.csv","","null","resources/images/fishbone.png","null","",NA,NA,NA,NA,""
"image-keyboard-response",212,196402,"0.0-3.67-0.67","fq5qqq93avqu1rf",403,"160.csv","","452.80000019073486","resources/trios/L2T1A3.jpg","38","restless",0.7,0.4,0.6,0.29261351952966,"true"
"image-keyboard-response",213,196816,"0.0-3.67-1.67","fq5qqq93avqu1rf",403,"160.csv","","null","resources/maskTrios/BT1B.jpg","null","",NA,NA,NA,NA,""
"image-keyboard-response",214,198027,"0.0-3.67-2.67","fq5qqq93avqu1rf",403,"160.csv","","null","resources/images/coin2.png","null","",NA,NA,NA,NA,""
"image-keyboard-response",215,198289,"0.0-3.68-0.68","fq5qqq93avqu1rf",403,"160.csv","","260.10000014305115","resources/trios/L2T1A1.jpg","38","restless",0.7,0.4,0.6,0.833120039503686,"false"
"image-keyboard-response",216,198702,"0.0-3.68-1.68","fq5qqq93avqu1rf",403,"160.csv","","null","resources/maskTrios/BT1B.jpg","null","",NA,NA,NA,NA,""
"image-keyboard-response",217,199917,"0.0-3.68-2.68","fq5qqq93avqu1rf",403,"160.csv","","null","resources/images/fishbone.png","null","",NA,NA,NA,NA,""
"image-keyboard-response",218,200319,"0.0-3.69-0.69","fq5qqq93avqu1rf",403,"160.csv","","399.89999985694885","resources/trios/L2T4A3.jpg","37","restless",0.7,0.4,0.6,0.485972065525287,"true"
"image-keyboard-response",219,200737,"0.0-3.69-1.69","fq5qqq93avqu1rf",403,"160.csv","","null","resources/maskTrios/L2BB.jpg","null","",NA,NA,NA,NA,""
"image-keyboard-response",220,201949,"0.0-3.69-2.69","fq5qqq93avqu1rf",403,"160.csv","","null","resources/images/coin2.png","null","",NA,NA,NA,NA,""
"image-keyboard-response",221,202287,"0.0-3.70-0.70","fq5qqq93avqu1rf",403,"160.csv","","336.30000019073486","resources/trios/L2T4A3.jpg","37","restless",0.6,0.4,0.6,0.644124306946583,"false"
"image-keyboard-response",222,202707,"0.0-3.70-1.70","fq5qqq93avqu1rf",403,"160.csv","","null","resources/maskTrios/L2BB.jpg","null","",NA,NA,NA,NA,""
"image-keyboard-response",223,203916,"0.0-3.70-2.70","fq5qqq93avqu1rf",403,"160.csv","","null","resources/images/fishbone.png","null","",NA,NA,NA,NA,""
"image-keyboard-response",224,204371,"0.0-3.71-0.71","fq5qqq93avqu1rf",403,"160.csv","","453.60000014305115","resources/trios/L1T4A1.jpg","39","restless",0.5,0.4,0.6,0.842242270976012,"false"
"image-keyboard-response",225,204789,"0.0-3.71-1.71","fq5qqq93avqu1rf",403,"160.csv","","null","resources/maskTrios/BBA1.jpg","null","",NA,NA,NA,NA,""
"image-keyboard-response",226,205996,"0.0-3.71-2.71","fq5qqq93avqu1rf",403,"160.csv","","null","resources/images/fishbone.png","null","",NA,NA,NA,NA,""
"image-keyboard-response",227,206293,"0.0-3.72-0.72","fq5qqq93avqu1rf",403,"160.csv","","295","resources/trios/L1T1A3.jpg","39","restless",0.5,0.4,0.6,0.430043448320388,"true"
"image-keyboard-response",228,206700,"0.0-3.72-1.72","fq5qqq93avqu1rf",403,"160.csv","","null","resources/maskTrios/BBA3.jpg","null","",NA,NA,NA,NA,""
"image-keyboard-response",229,207913,"0.0-3.72-2.72","fq5qqq93avqu1rf",403,"160.csv","","null","resources/images/coin2.png","null","",NA,NA,NA,NA,""
"image-keyboard-response",230,208214,"0.0-3.73-0.73","fq5qqq93avqu1rf",403,"160.csv","","298.69999980926514","resources/trios/L1T4A1.jpg","39","restless",0.5,0.4,0.6,0.58790096746357,"true"
"image-keyboard-response",231,208623,"0.0-3.73-1.73","fq5qqq93avqu1rf",403,"160.csv","","null","resources/maskTrios/BBA1.jpg","null","",NA,NA,NA,NA,""
"image-keyboard-response",232,209832,"0.0-3.73-2.73","fq5qqq93avqu1rf",403,"160.csv","","null","resources/images/coin2.png","null","",NA,NA,NA,NA,""
"image-keyboard-response",233,210155,"0.0-3.74-0.74","fq5qqq93avqu1rf",403,"160.csv","","321","resources/trios/L1T1A3.jpg","39","restless",0.5,0.5,0.6,0.647269665545517,"false"
"image-keyboard-response",234,210561,"0.0-3.74-1.74","fq5qqq93avqu1rf",403,"160.csv","","null","resources/maskTrios/BBA3.jpg","null","",NA,NA,NA,NA,""
"image-keyboard-response",235,211777,"0.0-3.74-2.74","fq5qqq93avqu1rf",403,"160.csv","","null","resources/images/fishbone.png","null","",NA,NA,NA,NA,""
"image-keyboard-response",236,212108,"0.0-3.75-0.75","fq5qqq93avqu1rf",403,"160.csv","","328.2000000476837","resources/trios/L2T1A1.jpg","37","restless",0.4,0.5,0.6,0.488095431493137,"false"
"image-keyboard-response",237,212522,"0.0-3.75-1.75","fq5qqq93avqu1rf",403,"160.csv","","null","resources/maskTrios/L2BB.jpg","null","",NA,NA,NA,NA,""
"image-keyboard-response",238,213730,"0.0-3.75-2.75","fq5qqq93avqu1rf",403,"160.csv","","null","resources/images/fishbone.png","null","",NA,NA,NA,NA,""
"image-keyboard-response",239,214155,"0.0-3.76-0.76","fq5qqq93avqu1rf",403,"160.csv","","423","resources/trios/L1T4A1.jpg","38","restless",0.4,0.5,0.6,0.962962948331946,"false"
"image-keyboard-response",240,214574,"0.0-3.76-1.76","fq5qqq93avqu1rf",403,"160.csv","","null","resources/maskTrios/BT4B.jpg","null","",NA,NA,NA,NA,""
"image-keyboard-response",241,215777,"0.0-3.76-2.76","fq5qqq93avqu1rf",403,"160.csv","","null","resources/images/fishbone.png","null","",NA,NA,NA,NA,""
"image-keyboard-response",242,216146,"0.0-3.77-0.77","fq5qqq93avqu1rf",403,"160.csv","","367.10000014305115","resources/trios/L2T1A1.jpg","37","restless",0.4,0.5,0.6,0.993804561300434,"false"
"image-keyboard-response",243,216568,"0.0-3.77-1.77","fq5qqq93avqu1rf",403,"160.csv","","null","resources/maskTrios/L2BB.jpg","null","",NA,NA,NA,NA,""
"image-keyboard-response",244,217789,"0.0-3.77-2.77","fq5qqq93avqu1rf",403,"160.csv","","null","resources/images/fishbone.png","null","",NA,NA,NA,NA,""
"image-keyboard-response",245,218328,"0.0-3.78-0.78","fq5qqq93avqu1rf",403,"160.csv","","536.9000000953674","resources/trios/L2T4A3.jpg","37","restless",0.4,0.5,0.6,0.0504372641197195,"true"
"image-keyboard-response",246,218745,"0.0-3.78-1.78","fq5qqq93avqu1rf",403,"160.csv","","null","resources/maskTrios/L2BB.jpg","null","",NA,NA,NA,NA,""
"image-keyboard-response",247,219956,"0.0-3.78-2.78","fq5qqq93avqu1rf",403,"160.csv","","null","resources/images/coin2.png","null","",NA,NA,NA,NA,""
"image-keyboard-response",248,220389,"0.0-3.79-0.79","fq5qqq93avqu1rf",403,"160.csv","","430.89999985694885","resources/trios/L2T4A1.jpg","37","restless",0.4,0.5,0.6,0.904793656430678,"false"
"image-keyboard-response",249,220802,"0.0-3.79-1.79","fq5qqq93avqu1rf",403,"160.csv","","null","resources/maskTrios/L2BB.jpg","null","",NA,NA,NA,NA,""
"image-keyboard-response",250,222023,"0.0-3.79-2.79","fq5qqq93avqu1rf",403,"160.csv","","null","resources/images/fishbone.png","null","",NA,NA,NA,NA,""
"image-keyboard-response",251,222459,"0.0-3.80-0.80","fq5qqq93avqu1rf",403,"160.csv","","434.2999999523163","resources/trios/L1T1A3.jpg","39","restless",0.4,0.5,0.6,0.236655662134294,"true"
"image-keyboard-response",252,222872,"0.0-3.80-1.80","fq5qqq93avqu1rf",403,"160.csv","","null","resources/maskTrios/BBA3.jpg","null","",NA,NA,NA,NA,""
"image-keyboard-response",253,224090,"0.0-3.80-2.80","fq5qqq93avqu1rf",403,"160.csv","","null","resources/images/coin2.png","null","",NA,NA,NA,NA,""
"image-keyboard-response",254,224658,"0.0-3.81-0.81","fq5qqq93avqu1rf",403,"160.csv","","566.2999999523163","resources/trios/L2T1A1.jpg","37","restless",0.4,0.5,0.6,0.771911623089984,"false"
"image-keyboard-response",255,225070,"0.0-3.81-1.81","fq5qqq93avqu1rf",403,"160.csv","","null","resources/maskTrios/L2BB.jpg","null","",NA,NA,NA,NA,""
"image-keyboard-response",256,226278,"0.0-3.81-2.81","fq5qqq93avqu1rf",403,"160.csv","","null","resources/images/fishbone.png","null","",NA,NA,NA,NA,""
"image-keyboard-response",257,226620,"0.0-3.82-0.82","fq5qqq93avqu1rf",403,"160.csv","","340.2999999523163","resources/trios/L1T1A3.jpg","38","restless",0.4,0.5,0.6,0.235597689869116,"true"
"image-keyboard-response",258,227027,"0.0-3.82-1.82","fq5qqq93avqu1rf",403,"160.csv","","null","resources/maskTrios/BT1B.jpg","null","",NA,NA,NA,NA,""
"image-keyboard-response",259,228248,"0.0-3.82-2.82","fq5qqq93avqu1rf",403,"160.csv","","null","resources/images/coin2.png","null","",NA,NA,NA,NA,""
"image-keyboard-response",260,228721,"0.0-3.83-0.83","fq5qqq93avqu1rf",403,"160.csv","","471.5","resources/trios/L2T4A1.jpg","38","restless",0.4,0.5,0.6,0.910517271964699,"false"
"image-keyboard-response",261,229142,"0.0-3.83-1.83","fq5qqq93avqu1rf",403,"160.csv","","null","resources/maskTrios/BT4B.jpg","null","",NA,NA,NA,NA,""
"image-keyboard-response",262,230345,"0.0-3.83-2.83","fq5qqq93avqu1rf",403,"160.csv","","null","resources/images/fishbone.png","null","",NA,NA,NA,NA,""
"image-keyboard-response",263,230715,"0.0-3.84-0.84","fq5qqq93avqu1rf",403,"160.csv","","368.5","resources/trios/L2T4A3.jpg","37","restless",0.4,0.5,0.6,0.92286667341532,"false"
"image-keyboard-response",264,231136,"0.0-3.84-1.84","fq5qqq93avqu1rf",403,"160.csv","","null","resources/maskTrios/L2BB.jpg","null","",NA,NA,NA,NA,""
"image-keyboard-response",265,232348,"0.0-3.84-2.84","fq5qqq93avqu1rf",403,"160.csv","","null","resources/images/fishbone.png","null","",NA,NA,NA,NA,""
"image-keyboard-response",266,232679,"0.0-3.85-0.85","fq5qqq93avqu1rf",403,"160.csv","","329","resources/trios/L2T4A3.jpg","39","restless",0.4,0.4,0.7,0.683500032011108,"true"
"image-keyboard-response",267,233102,"0.0-3.85-1.85","fq5qqq93avqu1rf",403,"160.csv","","null","resources/maskTrios/BBA3.jpg","null","",NA,NA,NA,NA,""
"image-keyboard-response",268,234320,"0.0-3.85-2.85","fq5qqq93avqu1rf",403,"160.csv","","null","resources/images/coin2.png","null","",NA,NA,NA,NA,""
"image-keyboard-response",269,234701,"0.0-3.86-0.86","fq5qqq93avqu1rf",403,"160.csv","","379.2999999523163","resources/trios/L1T1A1.jpg","39","restless",0.4,0.4,0.7,0.198332893070512,"true"
"image-keyboard-response",270,235120,"0.0-3.86-1.86","fq5qqq93avqu1rf",403,"160.csv","","null","resources/maskTrios/BBA1.jpg","null","",NA,NA,NA,NA,""
"image-keyboard-response",271,236341,"0.0-3.86-2.86","fq5qqq93avqu1rf",403,"160.csv","","null","resources/images/coin2.png","null","",NA,NA,NA,NA,""
"image-keyboard-response",272,236751,"0.0-3.87-0.87","fq5qqq93avqu1rf",403,"160.csv","","407.90000009536743","resources/trios/L1T1A3.jpg","39","restless",0.4,0.4,0.7,0.132329615945698,"true"
"image-keyboard-response",273,237176,"0.0-3.87-1.87","fq5qqq93avqu1rf",403,"160.csv","","null","resources/maskTrios/BBA3.jpg","null","",NA,NA,NA,NA,""
"image-keyboard-response",274,238391,"0.0-3.87-2.87","fq5qqq93avqu1rf",403,"160.csv","","null","resources/images/coin2.png","null","",NA,NA,NA,NA,""
"image-keyboard-response",275,238832,"0.0-3.88-0.88","fq5qqq93avqu1rf",403,"160.csv","","439.10000014305115","resources/trios/L2T1A1.jpg","39","restless",0.4,0.4,0.7,0.530451568095662,"true"
"image-keyboard-response",276,239250,"0.0-3.88-1.88","fq5qqq93avqu1rf",403,"160.csv","","null","resources/maskTrios/BBA1.jpg","null","",NA,NA,NA,NA,""
"image-keyboard-response",277,240467,"0.0-3.88-2.88","fq5qqq93avqu1rf",403,"160.csv","","null","resources/images/coin2.png","null","",NA,NA,NA,NA,""
"image-keyboard-response",278,240888,"0.0-3.89-0.89","fq5qqq93avqu1rf",403,"160.csv","","417.89999985694885","resources/trios/L2T4A1.jpg","39","restless",0.4,0.3,0.6,0.997683020093326,"false"
"image-keyboard-response",279,241297,"0.0-3.89-1.89","fq5qqq93avqu1rf",403,"160.csv","","null","resources/maskTrios/BBA1.jpg","null","",NA,NA,NA,NA,""
"image-keyboard-response",280,242509,"0.0-3.89-2.89","fq5qqq93avqu1rf",403,"160.csv","","null","resources/images/fishbone.png","null","",NA,NA,NA,NA,""
"image-keyboard-response",281,242947,"0.0-3.90-0.90","fq5qqq93avqu1rf",403,"160.csv","","436.40000009536743","resources/trios/L2T4A1.jpg","37","restless",0.4,0.3,0.6,0.812044801430751,"false"
"image-keyboard-response",282,243353,"0.0-3.90-1.90","fq5qqq93avqu1rf",403,"160.csv","","null","resources/maskTrios/L2BB.jpg","null","",NA,NA,NA,NA,""
"image-keyboard-response",283,244561,"0.0-3.90-2.90","fq5qqq93avqu1rf",403,"160.csv","","null","resources/images/fishbone.png","null","",NA,NA,NA,NA,""
"image-keyboard-response",284,244879,"0.0-3.91-0.91","fq5qqq93avqu1rf",403,"160.csv","","315.7000000476837","resources/trios/L1T1A3.jpg","38","restless",0.5,0.3,0.6,0.89004819302524,"false"
"image-keyboard-response",285,245296,"0.0-3.91-1.91","fq5qqq93avqu1rf",403,"160.csv","","null","resources/maskTrios/BT1B.jpg","null","",NA,NA,NA,NA,""
"image-keyboard-response",286,246510,"0.0-3.91-2.91","fq5qqq93avqu1rf",403,"160.csv","","null","resources/images/fishbone.png","null","",NA,NA,NA,NA,""
"image-keyboard-response",287,246873,"0.0-3.92-0.92","fq5qqq93avqu1rf",403,"160.csv","","360.7000000476837","resources/trios/L1T4A1.jpg","38","restless",0.5,0.3,0.6,0.485765893379727,"false"
"image-keyboard-response",288,247294,"0.0-3.92-1.92","fq5qqq93avqu1rf",403,"160.csv","","null","resources/maskTrios/BT4B.jpg","null","",NA,NA,NA,NA,""
"image-keyboard-response",289,248511,"0.0-3.92-2.92","fq5qqq93avqu1rf",403,"160.csv","","null","resources/images/fishbone.png","null","",NA,NA,NA,NA,""
"image-keyboard-response",290,248704,"0.0-3.93-0.93","fq5qqq93avqu1rf",403,"160.csv","","190.5","resources/trios/L1T1A1.jpg","38","restless",0.5,0.3,0.6,0.142248895636868,"true"
"image-keyboard-response",291,249119,"0.0-3.93-1.93","fq5qqq93avqu1rf",403,"160.csv","","null","resources/maskTrios/BT1B.jpg","null","",NA,NA,NA,NA,""
"image-keyboard-response",292,250330,"0.0-3.93-2.93","fq5qqq93avqu1rf",403,"160.csv","","null","resources/images/coin2.png","null","",NA,NA,NA,NA,""
"image-keyboard-response",293,250954,"0.0-3.94-0.94","fq5qqq93avqu1rf",403,"160.csv","","622.2000000476837","resources/trios/L2T4A3.jpg","38","restless",0.5,0.3,0.6,0.298774950382082,"true"
"image-keyboard-response",294,251367,"0.0-3.94-1.94","fq5qqq93avqu1rf",403,"160.csv","","null","resources/maskTrios/BT4B.jpg","null","",NA,NA,NA,NA,""
"image-keyboard-response",295,252589,"0.0-3.94-2.94","fq5qqq93avqu1rf",403,"160.csv","","null","resources/images/coin2.png","null","",NA,NA,NA,NA,""
"image-keyboard-response",296,252995,"0.0-3.95-0.95","fq5qqq93avqu1rf",403,"160.csv","","403.89999985694885","resources/trios/L2T1A3.jpg","38","restless",0.5,0.4,0.6,0.463903422296608,"false"
"image-keyboard-response",297,253403,"0.0-3.95-1.95","fq5qqq93avqu1rf",403,"160.csv","","null","resources/maskTrios/BT1B.jpg","null","",NA,NA,NA,NA,""
"image-keyboard-response",298,254623,"0.0-3.95-2.95","fq5qqq93avqu1rf",403,"160.csv","","null","resources/images/fishbone.png","null","",NA,NA,NA,NA,""
"image-keyboard-response",299,254921,"0.0-3.96-0.96","fq5qqq93avqu1rf",403,"160.csv","","296.40000009536743","resources/trios/L2T1A3.jpg","39","restless",0.5,0.4,0.6,0.792337237780858,"false"
"image-keyboard-response",300,255331,"0.0-3.96-1.96","fq5qqq93avqu1rf",403,"160.csv","","null","resources/maskTrios/BBA3.jpg","null","",NA,NA,NA,NA,""
"image-keyboard-response",301,256538,"0.0-3.96-2.96","fq5qqq93avqu1rf",403,"160.csv","","null","resources/images/fishbone.png","null","",NA,NA,NA,NA,""
"image-keyboard-response",302,257222,"0.0-3.97-0.97","fq5qqq93avqu1rf",403,"160.csv","","681.7000000476837","resources/trios/L2T4A3.jpg","39","restless",0.4,0.4,0.6,0.430174129886839,"true"
"image-keyboard-response",303,257637,"0.0-3.97-1.97","fq5qqq93avqu1rf",403,"160.csv","","null","resources/maskTrios/BBA3.jpg","null","",NA,NA,NA,NA,""
"image-keyboard-response",304,258844,"0.0-3.97-2.97","fq5qqq93avqu1rf",403,"160.csv","","null","resources/images/coin2.png","null","",NA,NA,NA,NA,""
"image-keyboard-response",305,259261,"0.0-3.98-0.98","fq5qqq93avqu1rf",403,"160.csv","","414.89999985694885","resources/trios/L2T1A3.jpg","39","restless",0.4,0.4,0.6,0.604325792608121,"false"
"image-keyboard-response",306,259670,"0.0-3.98-1.98","fq5qqq93avqu1rf",403,"160.csv","","null","resources/maskTrios/BBA3.jpg","null","",NA,NA,NA,NA,""
"image-keyboard-response",307,260875,"0.0-3.98-2.98","fq5qqq93avqu1rf",403,"160.csv","","null","resources/images/fishbone.png","null","",NA,NA,NA,NA,""
"image-keyboard-response",308,261333,"0.0-3.99-0.99","fq5qqq93avqu1rf",403,"160.csv","","455.2999999523163","resources/trios/L1T1A3.jpg","37","restless",0.4,0.4,0.6,0.73293632197124,"false"
"image-keyboard-response",309,261742,"0.0-3.99-1.99","fq5qqq93avqu1rf",403,"160.csv","","null","resources/maskTrios/L1BB.jpg","null","",NA,NA,NA,NA,""
"image-keyboard-response",310,262948,"0.0-3.99-2.99","fq5qqq93avqu1rf",403,"160.csv","","null","resources/images/fishbone.png","null","",NA,NA,NA,NA,""
"image-keyboard-response",311,263300,"0.0-3.100-0.100","fq5qqq93avqu1rf",403,"160.csv","","349.7999999523163","resources/trios/L1T1A1.jpg","37","restless",0.4,0.3,0.6,0.429209070111622,"false"
"image-keyboard-response",312,263709,"0.0-3.100-1.100","fq5qqq93avqu1rf",403,"160.csv","","null","resources/maskTrios/L1BB.jpg","null","",NA,NA,NA,NA,""
"image-keyboard-response",313,264915,"0.0-3.100-2.100","fq5qqq93avqu1rf",403,"160.csv","","null","resources/images/fishbone.png","null","",NA,NA,NA,NA,""
"image-keyboard-response",314,265453,"0.0-3.101-0.101","fq5qqq93avqu1rf",403,"160.csv","","536","resources/trios/L2T4A3.jpg","37","restless",0.4,0.3,0.6,0.759279041345735,"false"
"image-keyboard-response",315,265862,"0.0-3.101-1.101","fq5qqq93avqu1rf",403,"160.csv","","null","resources/maskTrios/L2BB.jpg","null","",NA,NA,NA,NA,""
"image-keyboard-response",316,267077,"0.0-3.101-2.101","fq5qqq93avqu1rf",403,"160.csv","","null","resources/images/fishbone.png","null","",NA,NA,NA,NA,""
"image-keyboard-response",317,267417,"0.0-3.102-0.102","fq5qqq93avqu1rf",403,"160.csv","","337.7999999523163","resources/trios/L1T1A1.jpg","37","restless",0.4,0.3,0.6,0.00401254276588658,"true"
"image-keyboard-response",318,267830,"0.0-3.102-1.102","fq5qqq93avqu1rf",403,"160.csv","","null","resources/maskTrios/L1BB.jpg","null","",NA,NA,NA,NA,""
"image-keyboard-response",319,269038,"0.0-3.102-2.102","fq5qqq93avqu1rf",403,"160.csv","","null","resources/images/coin2.png","null","",NA,NA,NA,NA,""
"image-keyboard-response",320,269621,"0.0-3.103-0.103","fq5qqq93avqu1rf",403,"160.csv","","581.5","resources/trios/L1T4A3.jpg","37","restless",0.4,0.3,0.6,0.861215685348418,"false"
"image-keyboard-response",321,270030,"0.0-3.103-1.103","fq5qqq93avqu1rf",403,"160.csv","","null","resources/maskTrios/L1BB.jpg","null","",NA,NA,NA,NA,""
"image-keyboard-response",322,271246,"0.0-3.103-2.103","fq5qqq93avqu1rf",403,"160.csv","","null","resources/images/fishbone.png","null","",NA,NA,NA,NA,""
"image-keyboard-response",323,271825,"0.0-3.104-0.104","fq5qqq93avqu1rf",403,"160.csv","","576.7999999523163","resources/trios/L2T1A1.jpg","39","restless",0.3,0.3,0.6,0.353504357909117,"true"
"image-keyboard-response",324,272247,"0.0-3.104-1.104","fq5qqq93avqu1rf",403,"160.csv","","null","resources/maskTrios/BBA1.jpg","null","",NA,NA,NA,NA,""
"image-keyboard-response",325,273464,"0.0-3.104-2.104","fq5qqq93avqu1rf",403,"160.csv","","null","resources/images/coin2.png","null","",NA,NA,NA,NA,""
"image-keyboard-response",326,274451,"0.0-3.105-0.105","fq5qqq93avqu1rf",403,"160.csv","","986","resources/trios/L1T4A1.jpg","39","restless",0.3,0.3,0.6,0.966647568073979,"false"
"image-keyboard-response",327,274866,"0.0-3.105-1.105","fq5qqq93avqu1rf",403,"160.csv","","null","resources/maskTrios/BBA1.jpg","null","",NA,NA,NA,NA,""
"image-keyboard-response",328,276082,"0.0-3.105-2.105","fq5qqq93avqu1rf",403,"160.csv","","null","resources/images/fishbone.png","null","",NA,NA,NA,NA,""
"image-keyboard-response",329,276955,"0.0-3.106-0.106","fq5qqq93avqu1rf",403,"160.csv","","871.5","resources/trios/L1T1A3.jpg","37","restless",0.3,0.3,0.6,0.952520771991334,"false"
"image-keyboard-response",330,277372,"0.0-3.106-1.106","fq5qqq93avqu1rf",403,"160.csv","","null","resources/maskTrios/L1BB.jpg","null","",NA,NA,NA,NA,""
"image-keyboard-response",331,278584,"0.0-3.106-2.106","fq5qqq93avqu1rf",403,"160.csv","","null","resources/images/fishbone.png","null","",NA,NA,NA,NA,""
"image-keyboard-response",332,279095,"0.0-3.107-0.107","fq5qqq93avqu1rf",403,"160.csv","","509","resources/trios/L2T4A3.jpg","39","restless",0.3,0.3,0.6,0.189163841242572,"true"
"image-keyboard-response",333,279505,"0.0-3.107-1.107","fq5qqq93avqu1rf",403,"160.csv","","null","resources/maskTrios/BBA3.jpg","null","",NA,NA,NA,NA,""
"image-keyboard-response",334,280714,"0.0-3.107-2.107","fq5qqq93avqu1rf",403,"160.csv","","null","resources/images/coin2.png","null","",NA,NA,NA,NA,""
"image-keyboard-response",335,281586,"0.0-3.108-0.108","fq5qqq93avqu1rf",403,"160.csv","","871","resources/trios/L1T1A1.jpg","37","restless",0.3,0.3,0.6,0.345536478244664,"false"
"image-keyboard-response",336,282003,"0.0-3.108-1.108","fq5qqq93avqu1rf",403,"160.csv","","null","resources/maskTrios/L1BB.jpg","null","",NA,NA,NA,NA,""
"image-keyboard-response",337,283216,"0.0-3.108-2.108","fq5qqq93avqu1rf",403,"160.csv","","null","resources/images/fishbone.png","null","",NA,NA,NA,NA,""
"image-keyboard-response",338,283887,"0.0-3.109-0.109","fq5qqq93avqu1rf",403,"160.csv","","669.0999999046326","resources/trios/L2T4A3.jpg","38","restless",0.3,0.3,0.6,0.963719149070476,"false"
"image-keyboard-response",339,284298,"0.0-3.109-1.109","fq5qqq93avqu1rf",403,"160.csv","","null","resources/maskTrios/BT4B.jpg","null","",NA,NA,NA,NA,""
"image-keyboard-response",340,285507,"0.0-3.109-2.109","fq5qqq93avqu1rf",403,"160.csv","","null","resources/images/fishbone.png","null","",NA,NA,NA,NA,""
"image-keyboard-response",341,286063,"0.0-3.110-0.110","fq5qqq93avqu1rf",403,"160.csv","","553.7999999523163","resources/trios/L1T1A1.jpg","37","restless",0.3,0.3,0.6,0.921554374088586,"false"
"image-keyboard-response",342,286475,"0.0-3.110-1.110","fq5qqq93avqu1rf",403,"160.csv","","null","resources/maskTrios/L1BB.jpg","null","",NA,NA,NA,NA,""
"image-keyboard-response",343,287687,"0.0-3.110-2.110","fq5qqq93avqu1rf",403,"160.csv","","null","resources/images/fishbone.png","null","",NA,NA,NA,NA,""
"image-keyboard-response",344,288095,"0.0-3.111-0.111","fq5qqq93avqu1rf",403,"160.csv","","405.7000000476837","resources/trios/L1T1A3.jpg","39","restless",0.3,0.3,0.5,0.0169093277813805,"true"
"image-keyboard-response",345,288510,"0.0-3.111-1.111","fq5qqq93avqu1rf",403,"160.csv","","null","resources/maskTrios/BBA3.jpg","null","",NA,NA,NA,NA,""
"image-keyboard-response",346,289717,"0.0-3.111-2.111","fq5qqq93avqu1rf",403,"160.csv","","null","resources/images/coin2.png","null","",NA,NA,NA,NA,""
"image-keyboard-response",347,290183,"0.0-3.112-0.112","fq5qqq93avqu1rf",403,"160.csv","","464.09999990463257","resources/trios/L1T4A1.jpg","39","restless",0.3,0.3,0.5,0.246919633503833,"true"
"image-keyboard-response",348,290597,"0.0-3.112-1.112","fq5qqq93avqu1rf",403,"160.csv","","null","resources/maskTrios/BBA1.jpg","null","",NA,NA,NA,NA,""
"image-keyboard-response",349,291815,"0.0-3.112-2.112","fq5qqq93avqu1rf",403,"160.csv","","null","resources/images/coin2.png","null","",NA,NA,NA,NA,""
"image-keyboard-response",350,291839,"0.0-3.113-0.113","fq5qqq93avqu1rf",403,"160.csv","","22.200000047683716","resources/trios/L1T4A3.jpg","39","restless",0.3,0.3,0.5,0.53092416746578,"false"
"image-keyboard-response",351,292251,"0.0-3.113-1.113","fq5qqq93avqu1rf",403,"160.csv","","null","resources/maskTrios/BBA3.jpg","null","",NA,NA,NA,NA,""
"image-keyboard-response",352,293466,"0.0-3.113-2.113","fq5qqq93avqu1rf",403,"160.csv","","null","resources/images/fishbone.png","null","",NA,NA,NA,NA,""
"image-keyboard-response",353,293813,"0.0-3.114-0.114","fq5qqq93avqu1rf",403,"160.csv","","346","resources/trios/L2T4A1.jpg","37","restless",0.3,0.3,0.5,0.385347281243898,"false"
"image-keyboard-response",354,294232,"0.0-3.114-1.114","fq5qqq93avqu1rf",403,"160.csv","","null","resources/maskTrios/L2BB.jpg","null","",NA,NA,NA,NA,""
"image-keyboard-response",355,295442,"0.0-3.114-2.114","fq5qqq93avqu1rf",403,"160.csv","","null","resources/images/fishbone.png","null","",NA,NA,NA,NA,""
"image-keyboard-response",356,295807,"0.0-3.115-0.115","fq5qqq93avqu1rf",403,"160.csv","","363.09999990463257","resources/trios/L2T1A1.jpg","39","restless",0.3,0.3,0.5,0.6113133544573,"false"
"image-keyboard-response",357,296216,"0.0-3.115-1.115","fq5qqq93avqu1rf",403,"160.csv","","null","resources/maskTrios/BBA1.jpg","null","",NA,NA,NA,NA,""
"image-keyboard-response",358,297433,"0.0-3.115-2.115","fq5qqq93avqu1rf",403,"160.csv","","null","resources/images/fishbone.png","null","",NA,NA,NA,NA,""
"image-keyboard-response",359,297823,"0.0-3.116-0.116","fq5qqq93avqu1rf",403,"160.csv","","388.59999990463257","resources/trios/L1T4A3.jpg","39","restless",0.3,0.3,0.5,0.153853585192275,"true"
"image-keyboard-response",360,298241,"0.0-3.116-1.116","fq5qqq93avqu1rf",403,"160.csv","","null","resources/maskTrios/BBA3.jpg","null","",NA,NA,NA,NA,""
"image-keyboard-response",361,299453,"0.0-3.116-2.116","fq5qqq93avqu1rf",403,"160.csv","","null","resources/images/coin2.png","null","",NA,NA,NA,NA,""
"image-keyboard-response",362,299977,"0.0-3.117-0.117","fq5qqq93avqu1rf",403,"160.csv","","521.9000000953674","resources/trios/L1T4A3.jpg","39","restless",0.3,0.3,0.5,0.139544371726554,"true"
"image-keyboard-response",363,300398,"0.0-3.117-1.117","fq5qqq93avqu1rf",403,"160.csv","","null","resources/maskTrios/BBA3.jpg","null","",NA,NA,NA,NA,""
"image-keyboard-response",364,301602,"0.0-3.117-2.117","fq5qqq93avqu1rf",403,"160.csv","","null","resources/images/coin2.png","null","",NA,NA,NA,NA,""
"image-keyboard-response",365,302267,"0.0-3.118-0.118","fq5qqq93avqu1rf",403,"160.csv","","663","resources/trios/L1T4A1.jpg","39","restless",0.3,0.3,0.5,0.512985774699883,"false"
"image-keyboard-response",366,302685,"0.0-3.118-1.118","fq5qqq93avqu1rf",403,"160.csv","","null","resources/maskTrios/BBA1.jpg","null","",NA,NA,NA,NA,""
"image-keyboard-response",367,303901,"0.0-3.118-2.118","fq5qqq93avqu1rf",403,"160.csv","","null","resources/images/fishbone.png","null","",NA,NA,NA,NA,""
"image-keyboard-response",368,303903,"0.0-3.119-0.119","fq5qqq93avqu1rf",403,"160.csv","","0.20000004768371582","resources/trios/L2T4A1.jpg","37","restless",0.3,0.3,0.5,0.593747694126603,"false"
"image-keyboard-response",369,304313,"0.0-3.119-1.119","fq5qqq93avqu1rf",403,"160.csv","","null","resources/maskTrios/L2BB.jpg","null","",NA,NA,NA,NA,""
"image-keyboard-response",370,305529,"0.0-3.119-2.119","fq5qqq93avqu1rf",403,"160.csv","","null","resources/images/fishbone.png","null","",NA,NA,NA,NA,""
"image-keyboard-response",371,306173,"0.0-3.120-0.120","fq5qqq93avqu1rf",403,"160.csv","","642.8000001907349","resources/trios/L2T1A1.jpg","39","restless",0.3,0.2,0.5,0.853757345170265,"false"
"image-keyboard-response",372,306579,"0.0-3.120-1.120","fq5qqq93avqu1rf",403,"160.csv","","null","resources/maskTrios/BBA1.jpg","null","",NA,NA,NA,NA,""
"image-keyboard-response",373,307799,"0.0-3.120-2.120","fq5qqq93avqu1rf",403,"160.csv","","null","resources/images/fishbone.png","null","",NA,NA,NA,NA,""
"image-keyboard-response",374,308132,"0.0-3.121-0.121","fq5qqq93avqu1rf",403,"160.csv","","331.2000000476837","resources/trios/L1T1A1.jpg","37","restless",0.3,0.2,0.5,0.518297690549492,"false"
"image-keyboard-response",375,308544,"0.0-3.121-1.121","fq5qqq93avqu1rf",403,"160.csv","","null","resources/maskTrios/L1BB.jpg","null","",NA,NA,NA,NA,""
"image-keyboard-response",376,309767,"0.0-3.121-2.121","fq5qqq93avqu1rf",403,"160.csv","","null","resources/images/fishbone.png","null","",NA,NA,NA,NA,""
"image-keyboard-response",377,310328,"0.0-3.122-0.122","fq5qqq93avqu1rf",403,"160.csv","","558.9000000953674","resources/trios/L1T4A1.jpg","39","restless",0.2,0.3,0.5,0.224775265202433,"true"
"image-keyboard-response",378,310746,"0.0-3.122-1.122","fq5qqq93avqu1rf",403,"160.csv","","null","resources/maskTrios/BBA1.jpg","null","",NA,NA,NA,NA,""
"image-keyboard-response",379,311961,"0.0-3.122-2.122","fq5qqq93avqu1rf",403,"160.csv","","null","resources/images/coin2.png","null","",NA,NA,NA,NA,""
"image-keyboard-response",380,312303,"0.0-3.123-0.123","fq5qqq93avqu1rf",403,"160.csv","","340.39999985694885","resources/trios/L2T4A1.jpg","39","restless",0.3,0.3,0.5,0.803187878794034,"false"
"image-keyboard-response",381,312728,"0.0-3.123-1.123","fq5qqq93avqu1rf",403,"160.csv","","null","resources/maskTrios/BBA1.jpg","null","",NA,NA,NA,NA,""
"image-keyboard-response",382,313950,"0.0-3.123-2.123","fq5qqq93avqu1rf",403,"160.csv","","null","resources/images/fishbone.png","null","",NA,NA,NA,NA,""
"image-keyboard-response",383,314164,"0.0-3.124-0.124","fq5qqq93avqu1rf",403,"160.csv","","212.29999995231628","resources/trios/L2T1A1.jpg","38","restless",0.3,0.3,0.5,0.940005513110963,"false"
"image-keyboard-response",384,314574,"0.0-3.124-1.124","fq5qqq93avqu1rf",403,"160.csv","","null","resources/maskTrios/BT1B.jpg","null","",NA,NA,NA,NA,""
"image-keyboard-response",385,315788,"0.0-3.124-2.124","fq5qqq93avqu1rf",403,"160.csv","","null","resources/images/fishbone.png","null","",NA,NA,NA,NA,""
"image-keyboard-response",386,315887,"0.0-3.125-0.125","fq5qqq93avqu1rf",403,"160.csv","","97.5","resources/trios/L2T4A1.jpg","37","restless",0.3,0.4,0.5,0.134128150645695,"true"
"image-keyboard-response",387,316312,"0.0-3.125-1.125","fq5qqq93avqu1rf",403,"160.csv","","null","resources/maskTrios/L2BB.jpg","null","",NA,NA,NA,NA,""
"image-keyboard-response",388,317530,"0.0-3.125-2.125","fq5qqq93avqu1rf",403,"160.csv","","null","resources/images/coin2.png","null","",NA,NA,NA,NA,""
"image-keyboard-response",389,317853,"0.0-3.126-0.126","fq5qqq93avqu1rf",403,"160.csv","","321.5","resources/trios/L2T4A3.jpg","37","restless",0.3,0.5,0.5,0.629882099408377,"false"
"image-keyboard-response",390,318258,"0.0-3.126-1.126","fq5qqq93avqu1rf",403,"160.csv","","null","resources/maskTrios/L2BB.jpg","null","",NA,NA,NA,NA,""
"image-keyboard-response",391,319470,"0.0-3.126-2.126","fq5qqq93avqu1rf",403,"160.csv","","null","resources/images/fishbone.png","null","",NA,NA,NA,NA,""
"image-keyboard-response",392,319854,"0.0-3.127-0.127","fq5qqq93avqu1rf",403,"160.csv","","381.7999999523163","resources/trios/L2T1A1.jpg","38","restless",0.3,0.5,0.6,0.789880702386083,"false"
"image-keyboard-response",393,320258,"0.0-3.127-1.127","fq5qqq93avqu1rf",403,"160.csv","","null","resources/maskTrios/BT1B.jpg","null","",NA,NA,NA,NA,""
"image-keyboard-response",394,321473,"0.0-3.127-2.127","fq5qqq93avqu1rf",403,"160.csv","","null","resources/images/fishbone.png","null","",NA,NA,NA,NA,""
"image-keyboard-response",395,321809,"0.0-3.128-0.128","fq5qqq93avqu1rf",403,"160.csv","","333.7000000476837","resources/trios/L1T1A3.jpg","39","restless",0.3,0.5,0.6,0.509126193229517,"true"
"image-keyboard-response",396,322217,"0.0-3.128-1.128","fq5qqq93avqu1rf",403,"160.csv","","null","resources/maskTrios/BBA3.jpg","null","",NA,NA,NA,NA,""
"image-keyboard-response",397,323430,"0.0-3.128-2.128","fq5qqq93avqu1rf",403,"160.csv","","null","resources/images/coin2.png","null","",NA,NA,NA,NA,""
"image-keyboard-response",398,323729,"0.0-3.129-0.129","fq5qqq93avqu1rf",403,"160.csv","","297.10000014305115","resources/trios/L1T4A3.jpg","39","restless",0.3,0.5,0.6,0.492720120828595,"true"
"image-keyboard-response",399,324146,"0.0-3.129-1.129","fq5qqq93avqu1rf",403,"160.csv","","null","resources/maskTrios/BBA3.jpg","null","",NA,NA,NA,NA,""
"image-keyboard-response",400,325368,"0.0-3.129-2.129","fq5qqq93avqu1rf",403,"160.csv","","null","resources/images/coin2.png","null","",NA,NA,NA,NA,""
"image-keyboard-response",401,325794,"0.0-3.130-0.130","fq5qqq93avqu1rf",403,"160.csv","","424.2999999523163","resources/trios/L1T1A1.jpg","39","restless",0.3,0.5,0.6,0.46637098801564,"true"
"image-keyboard-response",402,326212,"0.0-3.130-1.130","fq5qqq93avqu1rf",403,"160.csv","","null","resources/maskTrios/BBA1.jpg","null","",NA,NA,NA,NA,""
"image-keyboard-response",403,327430,"0.0-3.130-2.130","fq5qqq93avqu1rf",403,"160.csv","","null","resources/images/coin2.png","null","",NA,NA,NA,NA,""
"image-keyboard-response",404,327848,"0.0-3.131-0.131","fq5qqq93avqu1rf",403,"160.csv","","416.7000000476837","resources/trios/L2T4A3.jpg","39","restless",0.3,0.5,0.6,0.96520258309309,"false"
"image-keyboard-response",405,328258,"0.0-3.131-1.131","fq5qqq93avqu1rf",403,"160.csv","","null","resources/maskTrios/BBA3.jpg","null","",NA,NA,NA,NA,""
"image-keyboard-response",406,329462,"0.0-3.131-2.131","fq5qqq93avqu1rf",403,"160.csv","","null","resources/images/fishbone.png","null","",NA,NA,NA,NA,""
"image-keyboard-response",407,329789,"0.0-3.132-0.132","fq5qqq93avqu1rf",403,"160.csv","","324.7999999523163","resources/trios/L1T1A1.jpg","38","restless",0.3,0.5,0.6,0.660567060678278,"false"
"image-keyboard-response",408,330201,"0.0-3.132-1.132","fq5qqq93avqu1rf",403,"160.csv","","null","resources/maskTrios/BT1B.jpg","null","",NA,NA,NA,NA,""
"image-keyboard-response",409,331423,"0.0-3.132-2.132","fq5qqq93avqu1rf",403,"160.csv","","null","resources/images/fishbone.png","null","",NA,NA,NA,NA,""
"image-keyboard-response",410,331769,"0.0-3.133-0.133","fq5qqq93avqu1rf",403,"160.csv","","344.19999980926514","resources/trios/L2T1A3.jpg","37","restless",0.3,0.5,0.6,0.564593062646573,"false"
"image-keyboard-response",411,332182,"0.0-3.133-1.133","fq5qqq93avqu1rf",403,"160.csv","","null","resources/maskTrios/L2BB.jpg","null","",NA,NA,NA,NA,""
"image-keyboard-response",412,333397,"0.0-3.133-2.133","fq5qqq93avqu1rf",403,"160.csv","","null","resources/images/fishbone.png","null","",NA,NA,NA,NA,""
"image-keyboard-response",413,333803,"0.0-3.134-0.134","fq5qqq93avqu1rf",403,"160.csv","","404.09999990463257","resources/trios/L1T4A1.jpg","38","restless",0.3,0.5,0.6,0.876625212837762,"false"
"image-keyboard-response",414,334211,"0.0-3.134-1.134","fq5qqq93avqu1rf",403,"160.csv","","null","resources/maskTrios/BT4B.jpg","null","",NA,NA,NA,NA,""
"image-keyboard-response",415,335425,"0.0-3.134-2.134","fq5qqq93avqu1rf",403,"160.csv","","null","resources/images/fishbone.png","null","",NA,NA,NA,NA,""
"image-keyboard-response",416,335578,"0.0-3.135-0.135","fq5qqq93avqu1rf",403,"160.csv","","150.90000009536743","resources/trios/L2T1A1.jpg","39","restless",0.3,0.5,0.7,0.642664159437182,"true"
"image-keyboard-response",417,335993,"0.0-3.135-1.135","fq5qqq93avqu1rf",403,"160.csv","","null","resources/maskTrios/BBA1.jpg","null","",NA,NA,NA,NA,""
"image-keyboard-response",418,337211,"0.0-3.135-2.135","fq5qqq93avqu1rf",403,"160.csv","","null","resources/images/coin2.png","null","",NA,NA,NA,NA,""
"image-keyboard-response",419,337637,"0.0-3.136-0.136","fq5qqq93avqu1rf",403,"160.csv","","424.09999990463257","resources/trios/L1T1A1.jpg","39","restless",0.3,0.5,0.7,0.0399141070398308,"true"
"image-keyboard-response",420,338047,"0.0-3.136-1.136","fq5qqq93avqu1rf",403,"160.csv","","null","resources/maskTrios/BBA1.jpg","null","",NA,NA,NA,NA,""
"image-keyboard-response",421,339261,"0.0-3.136-2.136","fq5qqq93avqu1rf",403,"160.csv","","null","resources/images/coin2.png","null","",NA,NA,NA,NA,""
"image-keyboard-response",422,339632,"0.0-3.137-0.137","fq5qqq93avqu1rf",403,"160.csv","","368.90000009536743","resources/trios/L2T4A3.jpg","39","restless",0.3,0.5,0.7,0.931274580687411,"false"
"image-keyboard-response",423,340047,"0.0-3.137-1.137","fq5qqq93avqu1rf",403,"160.csv","","null","resources/maskTrios/BBA3.jpg","null","",NA,NA,NA,NA,""
"image-keyboard-response",424,341252,"0.0-3.137-2.137","fq5qqq93avqu1rf",403,"160.csv","","null","resources/images/fishbone.png","null","",NA,NA,NA,NA,""
"image-keyboard-response",425,341571,"0.0-3.138-0.138","fq5qqq93avqu1rf",403,"160.csv","","317.2999999523163","resources/trios/L2T4A1.jpg","37","restless",0.3,0.5,0.7,0.498468306341256,"false"
"image-keyboard-response",426,341987,"0.0-3.138-1.138","fq5qqq93avqu1rf",403,"160.csv","","null","resources/maskTrios/L2BB.jpg","null","",NA,NA,NA,NA,""
"image-keyboard-response",427,343206,"0.0-3.138-2.138","fq5qqq93avqu1rf",403,"160.csv","","null","resources/images/fishbone.png","null","",NA,NA,NA,NA,""
"image-keyboard-response",428,343471,"0.0-3.139-0.139","fq5qqq93avqu1rf",403,"160.csv","","262.7999999523163","resources/trios/L2T1A3.jpg","38","restless",0.3,0.5,0.7,0.761087952309451,"false"
"image-keyboard-response",429,343885,"0.0-3.139-1.139","fq5qqq93avqu1rf",403,"160.csv","","null","resources/maskTrios/BT1B.jpg","null","",NA,NA,NA,NA,""
"image-keyboard-response",430,345101,"0.0-3.139-2.139","fq5qqq93avqu1rf",403,"160.csv","","null","resources/images/fishbone.png","null","",NA,NA,NA,NA,""
"image-keyboard-response",431,345372,"0.0-3.140-0.140","fq5qqq93avqu1rf",403,"160.csv","","269.60000014305115","resources/trios/L2T4A3.jpg","37","restless",0.3,0.5,0.8,0.672525043279739,"false"
"image-keyboard-response",432,345789,"0.0-3.140-1.140","fq5qqq93avqu1rf",403,"160.csv","","null","resources/maskTrios/L2BB.jpg","null","",NA,NA,NA,NA,""
"image-keyboard-response",433,347000,"0.0-3.140-2.140","fq5qqq93avqu1rf",403,"160.csv","","null","resources/images/fishbone.png","null","",NA,NA,NA,NA,""
"image-keyboard-response",434,347341,"0.0-3.141-0.141","fq5qqq93avqu1rf",403,"160.csv","","339","resources/trios/L1T4A1.jpg","38","restless",0.3,0.5,0.8,0.516523494296515,"false"
"image-keyboard-response",435,347755,"0.0-3.141-1.141","fq5qqq93avqu1rf",403,"160.csv","","null","resources/maskTrios/BT4B.jpg","null","",NA,NA,NA,NA,""
"image-keyboard-response",436,348965,"0.0-3.141-2.141","fq5qqq93avqu1rf",403,"160.csv","","null","resources/images/fishbone.png","null","",NA,NA,NA,NA,""
"image-keyboard-response",437,349294,"0.0-3.142-0.142","fq5qqq93avqu1rf",403,"160.csv","","327.5","resources/trios/L1T1A1.jpg","38","restless",0.3,0.5,0.8,0.0191060258596936,"true"
"image-keyboard-response",438,349711,"0.0-3.142-1.142","fq5qqq93avqu1rf",403,"160.csv","","null","resources/maskTrios/BT1B.jpg","null","",NA,NA,NA,NA,""
"image-keyboard-response",439,350923,"0.0-3.142-2.142","fq5qqq93avqu1rf",403,"160.csv","","null","resources/images/coin2.png","null","",NA,NA,NA,NA,""
"image-keyboard-response",440,351663,"0.0-3.143-0.143","fq5qqq93avqu1rf",403,"160.csv","","737.5","resources/trios/L2T1A1.jpg","38","restless",0.3,0.5,0.8,0.617253114527913,"false"
"image-keyboard-response",441,352077,"0.0-3.143-1.143","fq5qqq93avqu1rf",403,"160.csv","","null","resources/maskTrios/BT1B.jpg","null","",NA,NA,NA,NA,""
"image-keyboard-response",442,353295,"0.0-3.143-2.143","fq5qqq93avqu1rf",403,"160.csv","","null","resources/images/fishbone.png","null","",NA,NA,NA,NA,""
"image-keyboard-response",443,353960,"0.0-3.144-0.144","fq5qqq93avqu1rf",403,"160.csv","","663.1000001430511","resources/trios/L1T1A3.jpg","37","restless",0.3,0.5,0.8,0.245431779919949,"true"
"image-keyboard-response",444,354386,"0.0-3.144-1.144","fq5qqq93avqu1rf",403,"160.csv","","null","resources/maskTrios/L1BB.jpg","null","",NA,NA,NA,NA,""
"image-keyboard-response",445,355593,"0.0-3.144-2.144","fq5qqq93avqu1rf",403,"160.csv","","null","resources/images/coin2.png","null","",NA,NA,NA,NA,""
"image-keyboard-response",446,355979,"0.0-3.145-0.145","fq5qqq93avqu1rf",403,"160.csv","","384.2000000476837","resources/trios/L2T4A3.jpg","38","restless",0.3,0.5,0.8,0.269039021071725,"true"
"image-keyboard-response",447,356395,"0.0-3.145-1.145","fq5qqq93avqu1rf",403,"160.csv","","null","resources/maskTrios/BT4B.jpg","null","",NA,NA,NA,NA,""
"image-keyboard-response",448,357602,"0.0-3.145-2.145","fq5qqq93avqu1rf",403,"160.csv","","null","resources/images/coin2.png","null","",NA,NA,NA,NA,""
"image-keyboard-response",449,357943,"0.0-3.146-0.146","fq5qqq93avqu1rf",403,"160.csv","","338.7999999523163","resources/trios/L1T1A1.jpg","39","restless",0.3,0.5,0.8,0.676345303402745,"true"
"image-keyboard-response",450,358363,"0.0-3.146-1.146","fq5qqq93avqu1rf",403,"160.csv","","null","resources/maskTrios/BBA1.jpg","null","",NA,NA,NA,NA,""
"image-keyboard-response",451,359572,"0.0-3.146-2.146","fq5qqq93avqu1rf",403,"160.csv","","null","resources/images/coin2.png","null","",NA,NA,NA,NA,""
"image-keyboard-response",452,360033,"0.0-3.147-0.147","fq5qqq93avqu1rf",403,"160.csv","","458.60000014305115","resources/trios/L1T4A1.jpg","37","restless",0.3,0.5,0.8,0.686206835683778,"false"
"image-keyboard-response",453,360446,"0.0-3.147-1.147","fq5qqq93avqu1rf",403,"160.csv","","null","resources/maskTrios/L1BB.jpg","null","",NA,NA,NA,NA,""
"image-keyboard-response",454,361661,"0.0-3.147-2.147","fq5qqq93avqu1rf",403,"160.csv","","null","resources/images/fishbone.png","null","",NA,NA,NA,NA,""
"image-keyboard-response",455,361972,"0.0-3.148-0.148","fq5qqq93avqu1rf",403,"160.csv","","309.09999990463257","resources/trios/L1T1A1.jpg","39","restless",0.3,0.5,0.7,0.234902002725773,"true"
"image-keyboard-response",456,362391,"0.0-3.148-1.148","fq5qqq93avqu1rf",403,"160.csv","","null","resources/maskTrios/BBA1.jpg","null","",NA,NA,NA,NA,""
"image-keyboard-response",457,363605,"0.0-3.148-2.148","fq5qqq93avqu1rf",403,"160.csv","","null","resources/images/coin2.png","null","",NA,NA,NA,NA,""
"image-keyboard-response",458,363999,"0.0-3.149-0.149","fq5qqq93avqu1rf",403,"160.csv","","392.40000009536743","resources/trios/L2T1A1.jpg","39","restless",0.3,0.5,0.7,0.923417586133877,"false"
"image-keyboard-response",459,364417,"0.0-3.149-1.149","fq5qqq93avqu1rf",403,"160.csv","","null","resources/maskTrios/BBA1.jpg","null","",NA,NA,NA,NA,""
"image-keyboard-response",460,365630,"0.0-3.149-2.149","fq5qqq93avqu1rf",403,"160.csv","","null","resources/images/fishbone.png","null","",NA,NA,NA,NA,""
"image-keyboard-response",461,366126,"0.0-3.150-0.150","fq5qqq93avqu1rf",403,"160.csv","","494.09999990463257","resources/trios/L1T4A3.jpg","37","restless",0.3,0.5,0.6,0.160317036264939,"true"
"image-keyboard-response",462,366537,"0.0-3.150-1.150","fq5qqq93avqu1rf",403,"160.csv","","null","resources/maskTrios/L1BB.jpg","null","",NA,NA,NA,NA,""
"image-keyboard-response",463,367750,"0.0-3.150-2.150","fq5qqq93avqu1rf",403,"160.csv","","null","resources/images/coin2.png","null","",NA,NA,NA,NA,""
"image-keyboard-response",464,368222,"0.0-3.151-0.151","fq5qqq93avqu1rf",403,"160.csv","","470.39999985694885","resources/trios/L2T1A1.jpg","37","restless",0.3,0.5,0.6,0.769378080820513,"false"
"image-keyboard-response",465,368636,"0.0-3.151-1.151","fq5qqq93avqu1rf",403,"160.csv","","null","resources/maskTrios/L2BB.jpg","null","",NA,NA,NA,NA,""
"image-keyboard-response",466,369860,"0.0-3.151-2.151","fq5qqq93avqu1rf",403,"160.csv","","null","resources/images/fishbone.png","null","",NA,NA,NA,NA,""
"image-keyboard-response",467,370476,"0.0-3.152-0.152","fq5qqq93avqu1rf",403,"160.csv","","614.7000000476837","resources/trios/L1T4A3.jpg","38","restless",0.3,0.5,0.6,0.427655894037287,"true"
"image-keyboard-response",468,370883,"0.0-3.152-1.152","fq5qqq93avqu1rf",403,"160.csv","","null","resources/maskTrios/BT4B.jpg","null","",NA,NA,NA,NA,""
"image-keyboard-response",469,372094,"0.0-3.152-2.152","fq5qqq93avqu1rf",403,"160.csv","","null","resources/images/coin2.png","null","",NA,NA,NA,NA,""
"image-keyboard-response",470,372539,"0.0-3.153-0.153","fq5qqq93avqu1rf",403,"160.csv","","442.5","resources/trios/L2T4A1.jpg","39","restless",0.3,0.5,0.6,0.637736495805439,"false"
"image-keyboard-response",471,372953,"0.0-3.153-1.153","fq5qqq93avqu1rf",403,"160.csv","","null","resources/maskTrios/BBA1.jpg","null","",NA,NA,NA,NA,""
"image-keyboard-response",472,374170,"0.0-3.153-2.153","fq5qqq93avqu1rf",403,"160.csv","","null","resources/images/fishbone.png","null","",NA,NA,NA,NA,""
"image-keyboard-response",473,374655,"0.0-3.154-0.154","fq5qqq93avqu1rf",403,"160.csv","","482.90000009536743","resources/trios/L2T1A1.jpg","39","restless",0.3,0.5,0.6,0.603029583539291,"false"
"image-keyboard-response",474,375079,"0.0-3.154-1.154","fq5qqq93avqu1rf",403,"160.csv","","null","resources/maskTrios/BBA1.jpg","null","",NA,NA,NA,NA,""
"image-keyboard-response",475,376302,"0.0-3.154-2.154","fq5qqq93avqu1rf",403,"160.csv","","null","resources/images/fishbone.png","null","",NA,NA,NA,NA,""
"image-keyboard-response",476,377251,"0.0-3.155-0.155","fq5qqq93avqu1rf",403,"160.csv","","946.6000001430511","resources/trios/L1T1A1.jpg","38","restless",0.3,0.5,0.6,0.668321282058733,"false"
"image-keyboard-response",477,377664,"0.0-3.155-1.155","fq5qqq93avqu1rf",403,"160.csv","","null","resources/maskTrios/BT1B.jpg","null","",NA,NA,NA,NA,""
"image-keyboard-response",478,378880,"0.0-3.155-2.155","fq5qqq93avqu1rf",403,"160.csv","","null","resources/images/fishbone.png","null","",NA,NA,NA,NA,""
"image-keyboard-response",479,379196,"0.0-3.156-0.156","fq5qqq93avqu1rf",403,"160.csv","","314","resources/trios/L2T4A3.jpg","39","restless",0.3,0.5,0.7,0.298206264930756,"true"
"image-keyboard-response",480,379612,"0.0-3.156-1.156","fq5qqq93avqu1rf",403,"160.csv","","null","resources/maskTrios/BBA3.jpg","null","",NA,NA,NA,NA,""
"image-keyboard-response",481,380825,"0.0-3.156-2.156","fq5qqq93avqu1rf",403,"160.csv","","null","resources/images/coin2.png","null","",NA,NA,NA,NA,""
"image-keyboard-response",482,381185,"0.0-3.157-0.157","fq5qqq93avqu1rf",403,"160.csv","","357.89999985694885","resources/trios/L2T1A3.jpg","39","restless",0.3,0.5,0.7,0.801613241716301,"false"
"image-keyboard-response",483,381597,"0.0-3.157-1.157","fq5qqq93avqu1rf",403,"160.csv","","null","resources/maskTrios/BBA3.jpg","null","",NA,NA,NA,NA,""
"image-keyboard-response",484,382800,"0.0-3.157-2.157","fq5qqq93avqu1rf",403,"160.csv","","null","resources/images/fishbone.png","null","",NA,NA,NA,NA,""
"image-keyboard-response",485,383435,"0.0-3.158-0.158","fq5qqq93avqu1rf",403,"160.csv","","633.4000000953674","resources/trios/L2T4A3.jpg","38","restless",0.4,0.4,0.8,0.099070222881241,"true"
"image-keyboard-response",486,383843,"0.0-3.158-1.158","fq5qqq93avqu1rf",403,"160.csv","","null","resources/maskTrios/BT4B.jpg","null","",NA,NA,NA,NA,""
"image-keyboard-response",487,385053,"0.0-3.158-2.158","fq5qqq93avqu1rf",403,"160.csv","","null","resources/images/coin2.png","null","",NA,NA,NA,NA,""
"image-keyboard-response",488,385434,"0.0-3.159-0.159","fq5qqq93avqu1rf",403,"160.csv","","378.7999999523163","resources/trios/L1T1A3.jpg","39","restless",0.4,0.4,0.8,0.641443841983005,"true"
"image-keyboard-response",489,385847,"0.0-3.159-1.159","fq5qqq93avqu1rf",403,"160.csv","","null","resources/maskTrios/BBA3.jpg","null","",NA,NA,NA,NA,""
"image-keyboard-response",490,387058,"0.0-3.159-2.159","fq5qqq93avqu1rf",403,"160.csv","","null","resources/images/coin2.png","null","",NA,NA,NA,NA,""
"image-keyboard-response",491,387468,"0.0-3.160-0.160","fq5qqq93avqu1rf",403,"160.csv","","407.59999990463257","resources/trios/L2T4A3.jpg","37","restless",0.4,0.4,0.7,0.119371433246914,"true"
"image-keyboard-response",492,387880,"0.0-3.160-1.160","fq5qqq93avqu1rf",403,"160.csv","","null","resources/maskTrios/L2BB.jpg","null","",NA,NA,NA,NA,""
"image-keyboard-response",493,389103,"0.0-3.160-2.160","fq5qqq93avqu1rf",403,"160.csv","","null","resources/images/coin2.png","null","",NA,NA,NA,NA,""
"image-keyboard-response",494,389451,"0.0-3.161-0.161","fq5qqq93avqu1rf",403,"160.csv","","346.19999980926514","resources/trios/L1T1A1.jpg","38","restless",0.4,0.4,0.7,0.848666982203376,"false"
"image-keyboard-response",495,389861,"0.0-3.161-1.161","fq5qqq93avqu1rf",403,"160.csv","","null","resources/maskTrios/BT1B.jpg","null","",NA,NA,NA,NA,""
"image-keyboard-response",496,391077,"0.0-3.161-2.161","fq5qqq93avqu1rf",403,"160.csv","","null","resources/images/fishbone.png","null","",NA,NA,NA,NA,""
"image-keyboard-response",497,391498,"0.0-3.162-0.162","fq5qqq93avqu1rf",403,"160.csv","","419.80000019073486","resources/trios/L2T1A3.jpg","38","restless",0.4,0.4,0.7,0.0648151681808371,"true"
"image-keyboard-response",498,391913,"0.0-3.162-1.162","fq5qqq93avqu1rf",403,"160.csv","","null","resources/maskTrios/BT1B.jpg","null","",NA,NA,NA,NA,""
"image-keyboard-response",499,393129,"0.0-3.162-2.162","fq5qqq93avqu1rf",403,"160.csv","","null","resources/images/coin2.png","null","",NA,NA,NA,NA,""
"image-keyboard-response",500,393512,"0.0-3.163-0.163","fq5qqq93avqu1rf",403,"160.csv","","381.2999999523163","resources/trios/L2T4A1.jpg","38","restless",0.4,0.4,0.7,0.706849825047135,"false"
"image-keyboard-response",501,393931,"0.0-3.163-1.163","fq5qqq93avqu1rf",403,"160.csv","","null","resources/maskTrios/BT4B.jpg","null","",NA,NA,NA,NA,""
"image-keyboard-response",502,395140,"0.0-3.163-2.163","fq5qqq93avqu1rf",403,"160.csv","","null","resources/images/fishbone.png","null","",NA,NA,NA,NA,""
"image-keyboard-response",503,395527,"0.0-3.164-0.164","fq5qqq93avqu1rf",403,"160.csv","","385.90000009536743","resources/trios/L1T4A3.jpg","39","restless",0.4,0.4,0.7,0.0871572148029467,"true"
"image-keyboard-response",504,395950,"0.0-3.164-1.164","fq5qqq93avqu1rf",403,"160.csv","","null","resources/maskTrios/BBA3.jpg","null","",NA,NA,NA,NA,""
"image-keyboard-response",505,397165,"0.0-3.164-2.164","fq5qqq93avqu1rf",403,"160.csv","","null","resources/images/coin2.png","null","",NA,NA,NA,NA,""
"image-keyboard-response",506,397403,"0.0-3.165-0.165","fq5qqq93avqu1rf",403,"160.csv","","236.09999990463257","resources/trios/L2T1A1.jpg","39","restless",0.3,0.4,0.7,0.54007607505432,"true"
"image-keyboard-response",507,397811,"0.0-3.165-1.165","fq5qqq93avqu1rf",403,"160.csv","","null","resources/maskTrios/BBA1.jpg","null","",NA,NA,NA,NA,""
"image-keyboard-response",508,399019,"0.0-3.165-2.165","fq5qqq93avqu1rf",403,"160.csv","","null","resources/images/coin2.png","null","",NA,NA,NA,NA,""
"image-keyboard-response",509,399325,"0.0-3.166-0.166","fq5qqq93avqu1rf",403,"160.csv","","304","resources/trios/L1T1A3.jpg","39","restless",0.2,0.4,0.7,0.297035644268261,"true"
"image-keyboard-response",510,399732,"0.0-3.166-1.166","fq5qqq93avqu1rf",403,"160.csv","","null","resources/maskTrios/BBA3.jpg","null","",NA,NA,NA,NA,""
"image-keyboard-response",511,400950,"0.0-3.166-2.166","fq5qqq93avqu1rf",403,"160.csv","","null","resources/images/coin2.png","null","",NA,NA,NA,NA,""
"image-keyboard-response",512,401238,"0.0-3.167-0.167","fq5qqq93avqu1rf",403,"160.csv","","285.59999990463257","resources/trios/L2T1A1.jpg","37","restless",0.2,0.3,0.7,0.875372087815892,"false"
"image-keyboard-response",513,401642,"0.0-3.167-1.167","fq5qqq93avqu1rf",403,"160.csv","","null","resources/maskTrios/L2BB.jpg","null","",NA,NA,NA,NA,""
"image-keyboard-response",514,402863,"0.0-3.167-2.167","fq5qqq93avqu1rf",403,"160.csv","","null","resources/images/fishbone.png","null","",NA,NA,NA,NA,""
"image-keyboard-response",515,403293,"0.0-3.168-0.168","fq5qqq93avqu1rf",403,"160.csv","","428.09999990463257","resources/trios/L1T1A3.jpg","37","restless",0.2,0.3,0.7,0.674494267395138,"false"
"image-keyboard-response",516,403712,"0.0-3.168-1.168","fq5qqq93avqu1rf",403,"160.csv","","null","resources/maskTrios/L1BB.jpg","null","",NA,NA,NA,NA,""
"image-keyboard-response",517,404922,"0.0-3.168-2.168","fq5qqq93avqu1rf",403,"160.csv","","null","resources/images/fishbone.png","null","",NA,NA,NA,NA,""
"image-keyboard-response",518,405322,"0.0-3.169-0.169","fq5qqq93avqu1rf",403,"160.csv","","398.80000019073486","resources/trios/L1T1A3.jpg","37","restless",0.2,0.3,0.7,0.83280195446642,"false"
"image-keyboard-response",519,405732,"0.0-3.169-1.169","fq5qqq93avqu1rf",403,"160.csv","","null","resources/maskTrios/L1BB.jpg","null","",NA,NA,NA,NA,""
"image-keyboard-response",520,406935,"0.0-3.169-2.169","fq5qqq93avqu1rf",403,"160.csv","","null","resources/images/fishbone.png","null","",NA,NA,NA,NA,""
"image-keyboard-response",521,407237,"0.0-3.170-0.170","fq5qqq93avqu1rf",403,"160.csv","","299.7999999523163","resources/trios/L2T4A3.jpg","38","restless",0.2,0.3,0.7,0.99691101192348,"false"
"image-keyboard-response",522,407657,"0.0-3.170-1.170","fq5qqq93avqu1rf",403,"160.csv","","null","resources/maskTrios/BT4B.jpg","null","",NA,NA,NA,NA,""
"image-keyboard-response",523,408866,"0.0-3.170-2.170","fq5qqq93avqu1rf",403,"160.csv","","null","resources/images/fishbone.png","null","",NA,NA,NA,NA,""
"image-keyboard-response",524,409185,"0.0-3.171-0.171","fq5qqq93avqu1rf",403,"160.csv","","316.60000014305115","resources/trios/L1T4A1.jpg","37","restless",0.2,0.2,0.7,0.171313159949344,"true"
"image-keyboard-response",525,409599,"0.0-3.171-1.171","fq5qqq93avqu1rf",403,"160.csv","","null","resources/maskTrios/L1BB.jpg","null","",NA,NA,NA,NA,""
"image-keyboard-response",526,410824,"0.0-3.171-2.171","fq5qqq93avqu1rf",403,"160.csv","","null","resources/images/coin2.png","null","",NA,NA,NA,NA,""
"image-keyboard-response",527,411276,"0.0-3.172-0.172","fq5qqq93avqu1rf",403,"160.csv","","450.10000014305115","resources/trios/L1T1A3.jpg","38","restless",0.2,0.1,0.7,0.120897466336608,"false"
"image-keyboard-response",528,411693,"0.0-3.172-1.172","fq5qqq93avqu1rf",403,"160.csv","","null","resources/maskTrios/BT1B.jpg","null","",NA,NA,NA,NA,""
"image-keyboard-response",529,412904,"0.0-3.172-2.172","fq5qqq93avqu1rf",403,"160.csv","","null","resources/images/fishbone.png","null","",NA,NA,NA,NA,""
"image-keyboard-response",530,413302,"0.0-3.173-0.173","fq5qqq93avqu1rf",403,"160.csv","","395.89999985694885","resources/trios/L2T4A3.jpg","38","restless",0.3,0.1,0.7,0.274308295291736,"false"
"image-keyboard-response",531,413713,"0.0-3.173-1.173","fq5qqq93avqu1rf",403,"160.csv","","null","resources/maskTrios/BT4B.jpg","null","",NA,NA,NA,NA,""
"image-keyboard-response",532,414930,"0.0-3.173-2.173","fq5qqq93avqu1rf",403,"160.csv","","null","resources/images/fishbone.png","null","",NA,NA,NA,NA,""
"image-keyboard-response",533,415316,"0.0-3.174-0.174","fq5qqq93avqu1rf",403,"160.csv","","384.09999990463257","resources/trios/L1T4A1.jpg","37","restless",0.3,0.1,0.7,0.895255871619209,"false"
"image-keyboard-response",534,415730,"0.0-3.174-1.174","fq5qqq93avqu1rf",403,"160.csv","","null","resources/maskTrios/L1BB.jpg","null","",NA,NA,NA,NA,""
"image-keyboard-response",535,416951,"0.0-3.174-2.174","fq5qqq93avqu1rf",403,"160.csv","","null","resources/images/fishbone.png","null","",NA,NA,NA,NA,""
"image-keyboard-response",536,417441,"0.0-3.175-0.175","fq5qqq93avqu1rf",403,"160.csv","","488.40000009536743","resources/trios/L2T1A3.jpg","39","restless",0.3,0.1,0.7,0.578178965019704,"true"
"image-keyboard-response",537,417858,"0.0-3.175-1.175","fq5qqq93avqu1rf",403,"160.csv","","null","resources/maskTrios/BBA3.jpg","null","",NA,NA,NA,NA,""
"image-keyboard-response",538,419077,"0.0-3.175-2.175","fq5qqq93avqu1rf",403,"160.csv","","null","resources/images/coin2.png","null","",NA,NA,NA,NA,""
"image-keyboard-response",539,419105,"0.0-3.176-0.176","fq5qqq93avqu1rf",403,"160.csv","","26.40000009536743","resources/trios/L2T4A3.jpg","39","restless",0.3,0.1,0.7,0.0641073026307797,"true"
"image-keyboard-response",540,419526,"0.0-3.176-1.176","fq5qqq93avqu1rf",403,"160.csv","","null","resources/maskTrios/BBA3.jpg","null","",NA,NA,NA,NA,""
"image-keyboard-response",541,420731,"0.0-3.176-2.176","fq5qqq93avqu1rf",403,"160.csv","","null","resources/images/coin2.png","null","",NA,NA,NA,NA,""
"image-keyboard-response",542,421017,"0.0-3.177-0.177","fq5qqq93avqu1rf",403,"160.csv","","283.2999999523163","resources/trios/L1T1A3.jpg","39","restless",0.3,0.1,0.7,0.0933061037501712,"true"
"image-keyboard-response",543,421437,"0.0-3.177-1.177","fq5qqq93avqu1rf",403,"160.csv","","null","resources/maskTrios/BBA3.jpg","null","",NA,NA,NA,NA,""
"image-keyboard-response",544,422647,"0.0-3.177-2.177","fq5qqq93avqu1rf",403,"160.csv","","null","resources/images/coin2.png","null","",NA,NA,NA,NA,""
"image-keyboard-response",545,423134,"0.0-3.178-0.178","fq5qqq93avqu1rf",403,"160.csv","","485.09999990463257","resources/trios/L1T4A3.jpg","38","restless",0.3,0.1,0.7,0.693996980842966,"false"
"image-keyboard-response",546,423548,"0.0-3.178-1.178","fq5qqq93avqu1rf",403,"160.csv","","null","resources/maskTrios/BT4B.jpg","null","",NA,NA,NA,NA,""
"image-keyboard-response",547,424769,"0.0-3.178-2.178","fq5qqq93avqu1rf",403,"160.csv","","null","resources/images/fishbone.png","null","",NA,NA,NA,NA,""
"image-keyboard-response",548,425217,"0.0-3.179-0.179","fq5qqq93avqu1rf",403,"160.csv","","446.7000000476837","resources/trios/L2T1A1.jpg","38","restless",0.3,0.1,0.7,0.292939911529675,"false"
"image-keyboard-response",549,425638,"0.0-3.179-1.179","fq5qqq93avqu1rf",403,"160.csv","","null","resources/maskTrios/BT1B.jpg","null","",NA,NA,NA,NA,""
"image-keyboard-response",550,426849,"0.0-3.179-2.179","fq5qqq93avqu1rf",403,"160.csv","","null","resources/images/fishbone.png","null","",NA,NA,NA,NA,""
"image-keyboard-response",551,427185,"0.0-3.180-0.180","fq5qqq93avqu1rf",403,"160.csv","","334.5","resources/trios/L2T4A1.jpg","37","restless",0.3,0.1,0.6,0.0942053318533926,"true"
"image-keyboard-response",552,427595,"0.0-3.180-1.180","fq5qqq93avqu1rf",403,"160.csv","","null","resources/maskTrios/L2BB.jpg","null","",NA,NA,NA,NA,""
"image-keyboard-response",553,428805,"0.0-3.180-2.180","fq5qqq93avqu1rf",403,"160.csv","","null","resources/images/coin2.png","null","",NA,NA,NA,NA,""
"image-keyboard-response",554,429392,"0.0-3.181-0.181","fq5qqq93avqu1rf",403,"160.csv","","585.2999999523163","resources/trios/L2T4A3.jpg","38","restless",0.3,0.1,0.6,0.692815326421836,"false"
"image-keyboard-response",555,429813,"0.0-3.181-1.181","fq5qqq93avqu1rf",403,"160.csv","","null","resources/maskTrios/BT4B.jpg","null","",NA,NA,NA,NA,""
"image-keyboard-response",556,431020,"0.0-3.181-2.181","fq5qqq93avqu1rf",403,"160.csv","","null","resources/images/fishbone.png","null","",NA,NA,NA,NA,""
"image-keyboard-response",557,431317,"0.0-3.182-0.182","fq5qqq93avqu1rf",403,"160.csv","","295.7999999523163","resources/trios/L2T1A1.jpg","37","restless",0.3,0.1,0.6,0.802948301165382,"false"
"image-keyboard-response",558,431723,"0.0-3.182-1.182","fq5qqq93avqu1rf",403,"160.csv","","null","resources/maskTrios/L2BB.jpg","null","",NA,NA,NA,NA,""
"image-keyboard-response",559,432934,"0.0-3.182-2.182","fq5qqq93avqu1rf",403,"160.csv","","null","resources/images/fishbone.png","null","",NA,NA,NA,NA,""
"image-keyboard-response",560,433308,"0.0-3.183-0.183","fq5qqq93avqu1rf",403,"160.csv","","371.7999999523163","resources/trios/L1T4A1.jpg","38","restless",0.3,0.1,0.6,0.435079038665386,"false"
"image-keyboard-response",561,433717,"0.0-3.183-1.183","fq5qqq93avqu1rf",403,"160.csv","","null","resources/maskTrios/BT4B.jpg","null","",NA,NA,NA,NA,""
"image-keyboard-response",562,434932,"0.0-3.183-2.183","fq5qqq93avqu1rf",403,"160.csv","","null","resources/images/fishbone.png","null","",NA,NA,NA,NA,""
"image-keyboard-response",563,435065,"0.0-3.184-0.184","fq5qqq93avqu1rf",403,"160.csv","","130.69999980926514","resources/trios/L2T4A3.jpg","39","restless",0.3,0.1,0.6,0.82808842936434,"false"
"image-keyboard-response",564,435480,"0.0-3.184-1.184","fq5qqq93avqu1rf",403,"160.csv","","null","resources/maskTrios/BBA3.jpg","null","",NA,NA,NA,NA,""
"image-keyboard-response",565,436692,"0.0-3.184-2.184","fq5qqq93avqu1rf",403,"160.csv","","null","resources/images/fishbone.png","null","",NA,NA,NA,NA,""
"image-keyboard-response",566,437001,"0.0-3.185-0.185","fq5qqq93avqu1rf",403,"160.csv","","306.39999985694885","resources/trios/L1T4A1.jpg","38","restless",0.3,0.1,0.6,0.524092731676396,"false"
"image-keyboard-response",567,437415,"0.0-3.185-1.185","fq5qqq93avqu1rf",403,"160.csv","","null","resources/maskTrios/BT4B.jpg","null","",NA,NA,NA,NA,""
"image-keyboard-response",568,438626,"0.0-3.185-2.185","fq5qqq93avqu1rf",403,"160.csv","","null","resources/images/fishbone.png","null","",NA,NA,NA,NA,""
"image-keyboard-response",569,439227,"0.0-3.186-0.186","fq5qqq93avqu1rf",403,"160.csv","","599.7000000476837","resources/trios/L1T4A3.jpg","37","restless",0.3,0.1,0.6,0.660903590137019,"false"
"image-keyboard-response",570,439641,"0.0-3.186-1.186","fq5qqq93avqu1rf",403,"160.csv","","null","resources/maskTrios/L1BB.jpg","null","",NA,NA,NA,NA,""
"image-keyboard-response",571,440862,"0.0-3.186-2.186","fq5qqq93avqu1rf",403,"160.csv","","null","resources/images/fishbone.png","null","",NA,NA,NA,NA,""
"image-keyboard-response",572,441211,"0.0-3.187-0.187","fq5qqq93avqu1rf",403,"160.csv","","346.90000009536743","resources/trios/L2T4A1.jpg","37","restless",0.3,0.1,0.6,0.268195900772447,"true"
"image-keyboard-response",573,441621,"0.0-3.187-1.187","fq5qqq93avqu1rf",403,"160.csv","","null","resources/maskTrios/L2BB.jpg","null","",NA,NA,NA,NA,""
"image-keyboard-response",574,442828,"0.0-3.187-2.187","fq5qqq93avqu1rf",403,"160.csv","","null","resources/images/coin2.png","null","",NA,NA,NA,NA,""
"image-keyboard-response",575,443184,"0.0-3.188-0.188","fq5qqq93avqu1rf",403,"160.csv","","354.40000009536743","resources/trios/L1T1A3.jpg","38","restless",0.4,0.2,0.6,0.999249098141551,"false"
"image-keyboard-response",576,443594,"0.0-3.188-1.188","fq5qqq93avqu1rf",403,"160.csv","","null","resources/maskTrios/BT1B.jpg","null","",NA,NA,NA,NA,""
"image-keyboard-response",577,444807,"0.0-3.188-2.188","fq5qqq93avqu1rf",403,"160.csv","","null","resources/images/fishbone.png","null","",NA,NA,NA,NA,""
"image-keyboard-response",578,445098,"0.0-3.189-0.189","fq5qqq93avqu1rf",403,"160.csv","","288.2000000476837","resources/trios/L1T1A1.jpg","37","restless",0.4,0.2,0.5,4.86973465785301e-05,"true"
"image-keyboard-response",579,445510,"0.0-3.189-1.189","fq5qqq93avqu1rf",403,"160.csv","","null","resources/maskTrios/L1BB.jpg","null","",NA,NA,NA,NA,""
"image-keyboard-response",580,446726,"0.0-3.189-2.189","fq5qqq93avqu1rf",403,"160.csv","","null","resources/images/coin2.png","null","",NA,NA,NA,NA,""
"image-keyboard-response",581,447148,"0.0-3.190-0.190","fq5qqq93avqu1rf",403,"160.csv","","419.7000000476837","resources/trios/L2T1A1.jpg","38","restless",0.4,0.2,0.5,0.999440321461537,"false"
"image-keyboard-response",582,447559,"0.0-3.190-1.190","fq5qqq93avqu1rf",403,"160.csv","","null","resources/maskTrios/BT1B.jpg","null","",NA,NA,NA,NA,""
"image-keyboard-response",583,448783,"0.0-3.190-2.190","fq5qqq93avqu1rf",403,"160.csv","","null","resources/images/fishbone.png","null","",NA,NA,NA,NA,""
"image-keyboard-response",584,449068,"0.0-3.191-0.191","fq5qqq93avqu1rf",403,"160.csv","","282.89999985694885","resources/trios/L1T1A1.jpg","37","restless",0.4,0.2,0.5,0.537870409207062,"false"
"image-keyboard-response",585,449485,"0.0-3.191-1.191","fq5qqq93avqu1rf",403,"160.csv","","null","resources/maskTrios/L1BB.jpg","null","",NA,NA,NA,NA,""
"image-keyboard-response",586,450698,"0.0-3.191-2.191","fq5qqq93avqu1rf",403,"160.csv","","null","resources/images/fishbone.png","null","",NA,NA,NA,NA,""
"image-keyboard-response",587,451041,"0.0-3.192-0.192","fq5qqq93avqu1rf",403,"160.csv","","341.10000014305115","resources/trios/L2T1A3.jpg","39","restless",0.4,0.2,0.5,0.620218856009851,"false"
"image-keyboard-response",588,451459,"0.0-3.192-1.192","fq5qqq93avqu1rf",403,"160.csv","","null","resources/maskTrios/BBA3.jpg","null","",NA,NA,NA,NA,""
"image-keyboard-response",589,452676,"0.0-3.192-2.192","fq5qqq93avqu1rf",403,"160.csv","","null","resources/images/fishbone.png","null","",NA,NA,NA,NA,""
"image-keyboard-response",590,452911,"0.0-3.193-0.193","fq5qqq93avqu1rf",403,"160.csv","","233.60000014305115","resources/trios/L1T4A3.jpg","38","restless",0.4,0.2,0.5,0.252756217926379,"false"
"image-keyboard-response",591,453327,"0.0-3.193-1.193","fq5qqq93avqu1rf",403,"160.csv","","null","resources/maskTrios/BT4B.jpg","null","",NA,NA,NA,NA,""
"image-keyboard-response",592,454529,"0.0-3.193-2.193","fq5qqq93avqu1rf",403,"160.csv","","null","resources/images/fishbone.png","null","",NA,NA,NA,NA,""
"image-keyboard-response",593,454568,"0.0-3.194-0.194","fq5qqq93avqu1rf",403,"160.csv","","36.39999985694885","resources/trios/L2T4A3.jpg","39","restless",0.4,0.2,0.5,0.0113043614384853,"true"
"image-keyboard-response",594,454977,"0.0-3.194-1.194","fq5qqq93avqu1rf",403,"160.csv","","null","resources/maskTrios/BBA3.jpg","null","",NA,NA,NA,NA,""
"image-keyboard-response",595,456194,"0.0-3.194-2.194","fq5qqq93avqu1rf",403,"160.csv","","null","resources/images/coin2.png","null","",NA,NA,NA,NA,""
"image-keyboard-response",596,456611,"0.0-3.195-0.195","fq5qqq93avqu1rf",403,"160.csv","","414.80000019073486","resources/trios/L1T1A3.jpg","39","restless",0.4,0.2,0.5,0.66624307182502,"false"
"image-keyboard-response",597,457024,"0.0-3.195-1.195","fq5qqq93avqu1rf",403,"160.csv","","null","resources/maskTrios/BBA3.jpg","null","",NA,NA,NA,NA,""
"image-keyboard-response",598,458240,"0.0-3.195-2.195","fq5qqq93avqu1rf",403,"160.csv","","null","resources/images/fishbone.png","null","",NA,NA,NA,NA,""
"image-keyboard-response",599,458816,"0.0-3.196-0.196","fq5qqq93avqu1rf",403,"160.csv","","573.8999998569489","resources/trios/L2T1A1.jpg","37","restless",0.4,0.2,0.5,0.4059570082672,"false"
"image-keyboard-response",600,459231,"0.0-3.196-1.196","fq5qqq93avqu1rf",403,"160.csv","","null","resources/maskTrios/L2BB.jpg","null","",NA,NA,NA,NA,""
"image-keyboard-response",601,460456,"0.0-3.196-2.196","fq5qqq93avqu1rf",403,"160.csv","","null","resources/images/fishbone.png","null","",NA,NA,NA,NA,""
"image-keyboard-response",602,461235,"0.0-3.197-0.197","fq5qqq93avqu1rf",403,"160.csv","","777","resources/trios/L2T1A1.jpg","39","restless",0.4,0.2,0.5,0.0126343456761999,"true"
"image-keyboard-response",603,461646,"0.0-3.197-1.197","fq5qqq93avqu1rf",403,"160.csv","","null","resources/maskTrios/BBA1.jpg","null","",NA,NA,NA,NA,""
"image-keyboard-response",604,462852,"0.0-3.197-2.197","fq5qqq93avqu1rf",403,"160.csv","","null","resources/images/coin2.png","null","",NA,NA,NA,NA,""
"image-keyboard-response",605,463550,"0.0-3.198-0.198","fq5qqq93avqu1rf",403,"160.csv","","695.7999999523163","resources/trios/L2T4A1.jpg","39","restless",0.4,0.2,0.5,0.710374006096091,"false"
"image-keyboard-response",606,463962,"0.0-3.198-1.198","fq5qqq93avqu1rf",403,"160.csv","","null","resources/maskTrios/BBA1.jpg","null","",NA,NA,NA,NA,""
