"trial_type","trial_index","time_elapsed","internal_node_id","subject","participantCode","walkNumber","success","rt","stimulus","key_press","test_part","leftProb","midProb","rightProb","generatedNum","correct"
"pavlovia",0,955,"0.0-0.0","rhx7eruteguet17",7,"176.csv","","","","","",NA,NA,NA,NA,""
"fullscreen",1,5031,"0.0-1.0","rhx7eruteguet17",7,"176.csv","true","","","","",NA,NA,NA,NA,""
"html-keyboard-response",2,20127,"0.0-2.0-0.0","rhx7eruteguet17",7,"176.csv","","15091.099999964237","<p><font size='6'>Arrrgh!</p></font><p>Can you be the best pirate? Try to find lots of gold! But beware, some islands have more gold than others, and over time, the island with the most gold may change. Can YOU figure it out? </p><font size='6'>GOOD LUCK, CAPTAIN!!!</font><p>Press any key to begin</p>","32","",NA,NA,NA,NA,""
"image-keyboard-response",3,23138,"0.0-2.0-1.0","rhx7eruteguet17",7,"176.csv","","null","resources/image_sets/111.png","null","",NA,NA,NA,NA,""
"image-keyboard-response",4,34452,"0.0-2.0-2.0","rhx7eruteguet17",7,"176.csv","","11312.199999988079","resources/image_sets/left_highlight.png","37","",NA,NA,NA,NA,""
"image-keyboard-response",5,41485,"0.0-2.0-3.0","rhx7eruteguet17",7,"176.csv","","7029.5","resources/image_sets/mid_highlight.png","38","",NA,NA,NA,NA,""
"image-keyboard-response",6,43139,"0.0-2.0-4.0","rhx7eruteguet17",7,"176.csv","","1652.2000000476837","resources/image_sets/right_highlight.png","39","",NA,NA,NA,NA,""
"image-keyboard-response",7,47211,"0.0-2.0-5.0","rhx7eruteguet17",7,"176.csv","","4071.100000023842","resources/image_sets/111.png","13","",NA,NA,NA,NA,""
"image-keyboard-response",8,51308,"0.0-2.0-6.0","rhx7eruteguet17",7,"176.csv","","4095.100000023842","resources/images/coin2.png","13","",NA,NA,NA,NA,""
"image-keyboard-response",9,54252,"0.0-2.0-7.0","rhx7eruteguet17",7,"176.csv","","2942.800000011921","resources/images/fishbone.png","13","",NA,NA,NA,NA,""
"html-keyboard-response",10,68615,"0.0-2.0-8.0","rhx7eruteguet17",7,"176.csv","","14361.199999988079","<p>Your first journey will be a long one, but you will get a well deserved break at the end</p><p>After the break you will have four more journeys, but each will be much shorter than the first, and you will have breaks in between each</p><p>Press Enter to begin</p>","13","",NA,NA,NA,NA,""
"image-keyboard-response",11,73703,"0.0-3.0-0.0","rhx7eruteguet17",7,"176.csv","","5086.099999964237","resources/trios/L1T1A2.jpg","39","restless",0.3,0.9,0.7,0.942731429968374,"false"
"image-keyboard-response",12,74120,"0.0-3.0-1.0","rhx7eruteguet17",7,"176.csv","","null","resources/maskTrios/BBA2.jpg","null","",NA,NA,NA,NA,""
"image-keyboard-response",13,75337,"0.0-3.0-2.0","rhx7eruteguet17",7,"176.csv","","null","resources/images/fishbone.png","null","",NA,NA,NA,NA,""
"image-keyboard-response",14,92072,"0.0-3.1-0.1","rhx7eruteguet17",7,"176.csv","","16732.200000047684","resources/trios/L4T2A3.jpg","39","restless",0.3,0.9,0.7,0.426057823352893,"true"
"image-keyboard-response",15,92479,"0.0-3.1-1.1","rhx7eruteguet17",7,"176.csv","","null","resources/maskTrios/BBA3.jpg","null","",NA,NA,NA,NA,""
"image-keyboard-response",16,93696,"0.0-3.1-2.1","rhx7eruteguet17",7,"176.csv","","null","resources/images/coin2.png","null","",NA,NA,NA,NA,""
"image-keyboard-response",17,104909,"0.0-3.2-0.2","rhx7eruteguet17",7,"176.csv","","11210.5","resources/trios/L1T1A2.jpg","39","restless",0.3,0.9,0.8,0.778763278061857,"true"
"image-keyboard-response",18,105321,"0.0-3.2-1.2","rhx7eruteguet17",7,"176.csv","","null","resources/maskTrios/BBA2.jpg","null","",NA,NA,NA,NA,""
"image-keyboard-response",19,106532,"0.0-3.2-2.2","rhx7eruteguet17",7,"176.csv","","null","resources/images/coin2.png","null","",NA,NA,NA,NA,""
"image-keyboard-response",20,117692,"0.0-3.3-0.3","rhx7eruteguet17",7,"176.csv","","11158.100000023842","resources/trios/L4T2A3.jpg","39","restless",0.2,0.9,0.8,0.427505042780222,"true"
"image-keyboard-response",21,118098,"0.0-3.3-1.3","rhx7eruteguet17",7,"176.csv","","null","resources/maskTrios/BBA3.jpg","null","",NA,NA,NA,NA,""
"image-keyboard-response",22,119305,"0.0-3.3-2.3","rhx7eruteguet17",7,"176.csv","","null","resources/images/coin2.png","null","",NA,NA,NA,NA,""
"image-keyboard-response",23,126068,"0.0-3.4-0.4","rhx7eruteguet17",7,"176.csv","","6759.899999976158","resources/trios/L4T2A3.jpg","39","restless",0.3,0.9,0.9,0.147841789042601,"true"
"image-keyboard-response",24,126472,"0.0-3.4-1.4","rhx7eruteguet17",7,"176.csv","","null","resources/maskTrios/BBA3.jpg","null","",NA,NA,NA,NA,""
"image-keyboard-response",25,127687,"0.0-3.4-2.4","rhx7eruteguet17",7,"176.csv","","null","resources/images/coin2.png","null","",NA,NA,NA,NA,""
"image-keyboard-response",26,135580,"0.0-3.5-0.5","rhx7eruteguet17",7,"176.csv","","7891.5","resources/trios/L4T1A3.jpg","39","restless",0.3,0.9,0.9,0.324773155742315,"true"
"image-keyboard-response",27,135988,"0.0-3.5-1.5","rhx7eruteguet17",7,"176.csv","","null","resources/maskTrios/BBA3.jpg","null","",NA,NA,NA,NA,""
"image-keyboard-response",28,137195,"0.0-3.5-2.5","rhx7eruteguet17",7,"176.csv","","null","resources/images/coin2.png","null","",NA,NA,NA,NA,""
"image-keyboard-response",29,144142,"0.0-3.6-0.6","rhx7eruteguet17",7,"176.csv","","6944.5","resources/trios/L4T2A3.jpg","39","restless",0.3,0.9,0.9,0.736126476238629,"true"
"image-keyboard-response",30,144550,"0.0-3.6-1.6","rhx7eruteguet17",7,"176.csv","","null","resources/maskTrios/BBA3.jpg","null","",NA,NA,NA,NA,""
"image-keyboard-response",31,145757,"0.0-3.6-2.6","rhx7eruteguet17",7,"176.csv","","null","resources/images/coin2.png","null","",NA,NA,NA,NA,""
"image-keyboard-response",32,160456,"0.0-3.7-0.7","rhx7eruteguet17",7,"176.csv","","14696.5","resources/trios/L1T2A2.jpg","38","restless",0.3,0.9,0.9,0.858012708409129,"true"
"image-keyboard-response",33,160867,"0.0-3.7-1.7","rhx7eruteguet17",7,"176.csv","","null","resources/maskTrios/BT2B.jpg","null","",NA,NA,NA,NA,""
"image-keyboard-response",34,162080,"0.0-3.7-2.7","rhx7eruteguet17",7,"176.csv","","null","resources/images/coin2.png","null","",NA,NA,NA,NA,""
"image-keyboard-response",35,165119,"0.0-3.8-0.8","rhx7eruteguet17",7,"176.csv","","3036.300000011921","resources/trios/L4T1A3.jpg","39","restless",0.3,0.9,0.9,0.876808867474492,"true"
"image-keyboard-response",36,165533,"0.0-3.8-1.8","rhx7eruteguet17",7,"176.csv","","null","resources/maskTrios/BBA3.jpg","null","",NA,NA,NA,NA,""
"image-keyboard-response",37,166742,"0.0-3.8-2.8","rhx7eruteguet17",7,"176.csv","","null","resources/images/coin2.png","null","",NA,NA,NA,NA,""
"image-keyboard-response",38,174399,"0.0-3.9-0.9","rhx7eruteguet17",7,"176.csv","","7654.300000011921","resources/trios/L4T1A2.jpg","37","restless",0.3,0.8,0.9,0.108269573304076,"true"
"image-keyboard-response",39,174809,"0.0-3.9-1.9","rhx7eruteguet17",7,"176.csv","","null","resources/maskTrios/L4BB.jpg","null","",NA,NA,NA,NA,""
"image-keyboard-response",40,176023,"0.0-3.9-2.9","rhx7eruteguet17",7,"176.csv","","null","resources/images/coin2.png","null","",NA,NA,NA,NA,""
"image-keyboard-response",41,180272,"0.0-3.10-0.10","rhx7eruteguet17",7,"176.csv","","4246.199999988079","resources/trios/L4T2A2.jpg","38","restless",0.3,0.7,0.9,0.811521465432173,"false"
"image-keyboard-response",42,180680,"0.0-3.10-1.10","rhx7eruteguet17",7,"176.csv","","null","resources/maskTrios/BT2B.jpg","null","",NA,NA,NA,NA,""
"image-keyboard-response",43,181897,"0.0-3.10-2.10","rhx7eruteguet17",7,"176.csv","","null","resources/images/fishbone.png","null","",NA,NA,NA,NA,""
"image-keyboard-response",44,185312,"0.0-3.11-0.11","rhx7eruteguet17",7,"176.csv","","3410.699999988079","resources/trios/L1T1A3.jpg","39","restless",0.3,0.7,0.9,0.308381892716736,"true"
"image-keyboard-response",45,185724,"0.0-3.11-1.11","rhx7eruteguet17",7,"176.csv","","null","resources/maskTrios/BBA3.jpg","null","",NA,NA,NA,NA,""
"image-keyboard-response",46,186940,"0.0-3.11-2.11","rhx7eruteguet17",7,"176.csv","","null","resources/images/coin2.png","null","",NA,NA,NA,NA,""
"image-keyboard-response",47,191070,"0.0-3.12-0.12","rhx7eruteguet17",7,"176.csv","","4128.300000011921","resources/trios/L1T2A3.jpg","39","restless",0.2,0.7,0.8,0.49009528106882,"true"
"image-keyboard-response",48,191486,"0.0-3.12-1.12","rhx7eruteguet17",7,"176.csv","","null","resources/maskTrios/BBA3.jpg","null","",NA,NA,NA,NA,""
"image-keyboard-response",49,192697,"0.0-3.12-2.12","rhx7eruteguet17",7,"176.csv","","null","resources/images/coin2.png","null","",NA,NA,NA,NA,""
"image-keyboard-response",50,195087,"0.0-3.13-0.13","rhx7eruteguet17",7,"176.csv","","2387.399999976158","resources/trios/L1T1A3.jpg","39","restless",0.2,0.7,0.8,0.179998524103956,"true"
"image-keyboard-response",51,195505,"0.0-3.13-1.13","rhx7eruteguet17",7,"176.csv","","null","resources/maskTrios/BBA3.jpg","null","",NA,NA,NA,NA,""
"image-keyboard-response",52,196723,"0.0-3.13-2.13","rhx7eruteguet17",7,"176.csv","","null","resources/images/coin2.png","null","",NA,NA,NA,NA,""
"image-keyboard-response",53,199185,"0.0-3.14-0.14","rhx7eruteguet17",7,"176.csv","","2458.300000011921","resources/trios/L4T2A2.jpg","38","restless",0.2,0.6,0.8,0.708970920586994,"false"
"image-keyboard-response",54,199588,"0.0-3.14-1.14","rhx7eruteguet17",7,"176.csv","","null","resources/maskTrios/BT2B.jpg","null","",NA,NA,NA,NA,""
"image-keyboard-response",55,200799,"0.0-3.14-2.14","rhx7eruteguet17",7,"176.csv","","null","resources/images/fishbone.png","null","",NA,NA,NA,NA,""
"image-keyboard-response",56,201687,"0.0-3.15-0.15","rhx7eruteguet17",7,"176.csv","","884.5","resources/trios/L1T2A3.jpg","39","restless",0.2,0.6,0.8,0.220490753756759,"true"
"image-keyboard-response",57,202092,"0.0-3.15-1.15","rhx7eruteguet17",7,"176.csv","","null","resources/maskTrios/BBA3.jpg","null","",NA,NA,NA,NA,""
"image-keyboard-response",58,203309,"0.0-3.15-2.15","rhx7eruteguet17",7,"176.csv","","null","resources/images/coin2.png","null","",NA,NA,NA,NA,""
"image-keyboard-response",59,205328,"0.0-3.16-0.16","rhx7eruteguet17",7,"176.csv","","2017.2999999523163","resources/trios/L1T2A2.jpg","39","restless",0.2,0.5,0.8,0.323459896619594,"true"
"image-keyboard-response",60,205739,"0.0-3.16-1.16","rhx7eruteguet17",7,"176.csv","","null","resources/maskTrios/BBA2.jpg","null","",NA,NA,NA,NA,""
"image-keyboard-response",61,206946,"0.0-3.16-2.16","rhx7eruteguet17",7,"176.csv","","null","resources/images/coin2.png","null","",NA,NA,NA,NA,""
"image-keyboard-response",62,208351,"0.0-3.17-0.17","rhx7eruteguet17",7,"176.csv","","1403.7000000476837","resources/trios/L4T1A2.jpg","39","restless",0.2,0.5,0.8,0.635107398929535,"true"
"image-keyboard-response",63,208757,"0.0-3.17-1.17","rhx7eruteguet17",7,"176.csv","","null","resources/maskTrios/BBA2.jpg","null","",NA,NA,NA,NA,""
"image-keyboard-response",64,209968,"0.0-3.17-2.17","rhx7eruteguet17",7,"176.csv","","null","resources/images/coin2.png","null","",NA,NA,NA,NA,""
"image-keyboard-response",65,211560,"0.0-3.18-0.18","rhx7eruteguet17",7,"176.csv","","1590.4000000357628","resources/trios/L4T2A3.jpg","39","restless",0.2,0.5,0.8,0.790022606973581,"true"
"image-keyboard-response",66,211974,"0.0-3.18-1.18","rhx7eruteguet17",7,"176.csv","","null","resources/maskTrios/BBA3.jpg","null","",NA,NA,NA,NA,""
"image-keyboard-response",67,213189,"0.0-3.18-2.18","rhx7eruteguet17",7,"176.csv","","null","resources/images/coin2.png","null","",NA,NA,NA,NA,""
"image-keyboard-response",68,214408,"0.0-3.19-0.19","rhx7eruteguet17",7,"176.csv","","1214.5999999642372","resources/trios/L4T1A2.jpg","39","restless",0.3,0.5,0.8,0.387808830171786,"true"
"image-keyboard-response",69,214813,"0.0-3.19-1.19","rhx7eruteguet17",7,"176.csv","","null","resources/maskTrios/BBA2.jpg","null","",NA,NA,NA,NA,""
"image-keyboard-response",70,216030,"0.0-3.19-2.19","rhx7eruteguet17",7,"176.csv","","null","resources/images/coin2.png","null","",NA,NA,NA,NA,""
"image-keyboard-response",71,216759,"0.0-3.20-0.20","rhx7eruteguet17",7,"176.csv","","728.3000000119209","resources/trios/L1T2A3.jpg","39","restless",0.3,0.5,0.8,0.991332568617281,"false"
"image-keyboard-response",72,217175,"0.0-3.20-1.20","rhx7eruteguet17",7,"176.csv","","null","resources/maskTrios/BBA3.jpg","null","",NA,NA,NA,NA,""
"image-keyboard-response",73,218382,"0.0-3.20-2.20","rhx7eruteguet17",7,"176.csv","","null","resources/images/fishbone.png","null","",NA,NA,NA,NA,""
"image-keyboard-response",74,221024,"0.0-3.21-0.21","rhx7eruteguet17",7,"176.csv","","2639.2000000476837","resources/trios/L1T1A2.jpg","39","restless",0.3,0.5,0.8,0.761402889936402,"true"
"image-keyboard-response",75,221432,"0.0-3.21-1.21","rhx7eruteguet17",7,"176.csv","","null","resources/maskTrios/BBA2.jpg","null","",NA,NA,NA,NA,""
"image-keyboard-response",76,222649,"0.0-3.21-2.21","rhx7eruteguet17",7,"176.csv","","null","resources/images/coin2.png","null","",NA,NA,NA,NA,""
"image-keyboard-response",77,223504,"0.0-3.22-0.22","rhx7eruteguet17",7,"176.csv","","852.5999999642372","resources/trios/L4T1A2.jpg","39","restless",0.3,0.5,0.8,0.76186203198861,"true"
"image-keyboard-response",78,223910,"0.0-3.22-1.22","rhx7eruteguet17",7,"176.csv","","null","resources/maskTrios/BBA2.jpg","null","",NA,NA,NA,NA,""
"image-keyboard-response",79,225112,"0.0-3.22-2.22","rhx7eruteguet17",7,"176.csv","","null","resources/images/coin2.png","null","",NA,NA,NA,NA,""
"image-keyboard-response",80,226136,"0.0-3.23-0.23","rhx7eruteguet17",7,"176.csv","","1022.1999999880791","resources/trios/L4T1A3.jpg","39","restless",0.3,0.4,0.9,0.233477848613309,"true"
"image-keyboard-response",81,226550,"0.0-3.23-1.23","rhx7eruteguet17",7,"176.csv","","null","resources/maskTrios/BBA3.jpg","null","",NA,NA,NA,NA,""
"image-keyboard-response",82,227762,"0.0-3.23-2.23","rhx7eruteguet17",7,"176.csv","","null","resources/images/coin2.png","null","",NA,NA,NA,NA,""
"image-keyboard-response",83,228455,"0.0-3.24-0.24","rhx7eruteguet17",7,"176.csv","","691.3000000119209","resources/trios/L1T1A3.jpg","39","restless",0.3,0.4,0.9,0.187367001060218,"true"
"image-keyboard-response",84,228863,"0.0-3.24-1.24","rhx7eruteguet17",7,"176.csv","","null","resources/maskTrios/BBA3.jpg","null","",NA,NA,NA,NA,""
"image-keyboard-response",85,230076,"0.0-3.24-2.24","rhx7eruteguet17",7,"176.csv","","null","resources/images/coin2.png","null","",NA,NA,NA,NA,""
"image-keyboard-response",86,232624,"0.0-3.25-0.25","rhx7eruteguet17",7,"176.csv","","2545.2000000476837","resources/trios/L4T2A2.jpg","37","restless",0.3,0.3,0.9,0.841643968774421,"false"
"image-keyboard-response",87,233041,"0.0-3.25-1.25","rhx7eruteguet17",7,"176.csv","","null","resources/maskTrios/L4BB.jpg","null","",NA,NA,NA,NA,""
"image-keyboard-response",88,234252,"0.0-3.25-2.25","rhx7eruteguet17",7,"176.csv","","null","resources/images/fishbone.png","null","",NA,NA,NA,NA,""
"image-keyboard-response",89,234553,"0.0-3.26-0.26","rhx7eruteguet17",7,"176.csv","","299.39999997615814","resources/trios/L1T1A2.jpg","39","restless",0.3,0.3,0.8,0.0722740481774398,"true"
"image-keyboard-response",90,234960,"0.0-3.26-1.26","rhx7eruteguet17",7,"176.csv","","null","resources/maskTrios/BBA2.jpg","null","",NA,NA,NA,NA,""
"image-keyboard-response",91,236173,"0.0-3.26-2.26","rhx7eruteguet17",7,"176.csv","","null","resources/images/coin2.png","null","",NA,NA,NA,NA,""
"image-keyboard-response",92,237615,"0.0-3.27-0.27","rhx7eruteguet17",7,"176.csv","","1440.6000000238419","resources/trios/L4T2A3.jpg","39","restless",0.2,0.4,0.8,0.313230611235374,"true"
"image-keyboard-response",93,238020,"0.0-3.27-1.27","rhx7eruteguet17",7,"176.csv","","null","resources/maskTrios/BBA3.jpg","null","",NA,NA,NA,NA,""
"image-keyboard-response",94,239227,"0.0-3.27-2.27","rhx7eruteguet17",7,"176.csv","","null","resources/images/coin2.png","null","",NA,NA,NA,NA,""
"image-keyboard-response",95,240272,"0.0-3.28-0.28","rhx7eruteguet17",7,"176.csv","","1042.8999999761581","resources/trios/L1T1A3.jpg","39","restless",0.2,0.4,0.8,0.410431079012423,"true"
"image-keyboard-response",96,240690,"0.0-3.28-1.28","rhx7eruteguet17",7,"176.csv","","null","resources/maskTrios/BBA3.jpg","null","",NA,NA,NA,NA,""
"image-keyboard-response",97,241901,"0.0-3.28-2.28","rhx7eruteguet17",7,"176.csv","","null","resources/images/coin2.png","null","",NA,NA,NA,NA,""
"image-keyboard-response",98,244215,"0.0-3.29-0.29","rhx7eruteguet17",7,"176.csv","","2309.7999999523163","resources/trios/L1T2A2.jpg","39","restless",0.2,0.4,0.8,0.00703219279569889,"true"
"image-keyboard-response",99,244630,"0.0-3.29-1.29","rhx7eruteguet17",7,"176.csv","","null","resources/maskTrios/BBA2.jpg","null","",NA,NA,NA,NA,""
"image-keyboard-response",100,245839,"0.0-3.29-2.29","rhx7eruteguet17",7,"176.csv","","null","resources/images/coin2.png","null","",NA,NA,NA,NA,""
"image-keyboard-response",101,247031,"0.0-3.30-0.30","rhx7eruteguet17",7,"176.csv","","1190.699999988079","resources/trios/L4T1A3.jpg","39","restless",0.2,0.4,0.8,0.883492487497457,"false"
"image-keyboard-response",102,247438,"0.0-3.30-1.30","rhx7eruteguet17",7,"176.csv","","null","resources/maskTrios/BBA3.jpg","null","",NA,NA,NA,NA,""
"image-keyboard-response",103,248642,"0.0-3.30-2.30","rhx7eruteguet17",7,"176.csv","","null","resources/images/fishbone.png","null","",NA,NA,NA,NA,""
"image-keyboard-response",104,249343,"0.0-3.31-0.31","rhx7eruteguet17",7,"176.csv","","699.1000000238419","resources/trios/L4T2A3.jpg","39","restless",0.2,0.4,0.8,0.0183574416333514,"true"
"image-keyboard-response",105,249758,"0.0-3.31-1.31","rhx7eruteguet17",7,"176.csv","","null","resources/maskTrios/BBA3.jpg","null","",NA,NA,NA,NA,""
"image-keyboard-response",106,250963,"0.0-3.31-2.31","rhx7eruteguet17",7,"176.csv","","null","resources/images/coin2.png","null","",NA,NA,NA,NA,""
"image-keyboard-response",107,251297,"0.0-3.32-0.32","rhx7eruteguet17",7,"176.csv","","330.30000001192093","resources/trios/L4T2A2.jpg","39","restless",0.2,0.4,0.9,0.770696928010679,"true"
"image-keyboard-response",108,251710,"0.0-3.32-1.32","rhx7eruteguet17",7,"176.csv","","null","resources/maskTrios/BBA2.jpg","null","",NA,NA,NA,NA,""
"image-keyboard-response",109,252926,"0.0-3.32-2.32","rhx7eruteguet17",7,"176.csv","","null","resources/images/coin2.png","null","",NA,NA,NA,NA,""
"image-keyboard-response",110,254248,"0.0-3.33-0.33","rhx7eruteguet17",7,"176.csv","","1318.8999999761581","resources/trios/L4T1A3.jpg","39","restless",0.2,0.4,0.9,0.760204409934195,"true"
"image-keyboard-response",111,254654,"0.0-3.33-1.33","rhx7eruteguet17",7,"176.csv","","null","resources/maskTrios/BBA3.jpg","null","",NA,NA,NA,NA,""
"image-keyboard-response",112,255863,"0.0-3.33-2.33","rhx7eruteguet17",7,"176.csv","","null","resources/images/coin2.png","null","",NA,NA,NA,NA,""
"image-keyboard-response",113,256408,"0.0-3.34-0.34","rhx7eruteguet17",7,"176.csv","","541.6999999880791","resources/trios/L4T1A3.jpg","39","restless",0.3,0.4,0.9,0.416780169618308,"true"
"image-keyboard-response",114,256822,"0.0-3.34-1.34","rhx7eruteguet17",7,"176.csv","","null","resources/maskTrios/BBA3.jpg","null","",NA,NA,NA,NA,""
"image-keyboard-response",115,258027,"0.0-3.34-2.34","rhx7eruteguet17",7,"176.csv","","null","resources/images/coin2.png","null","",NA,NA,NA,NA,""
"image-keyboard-response",116,258943,"0.0-3.35-0.35","rhx7eruteguet17",7,"176.csv","","914.8000000119209","resources/trios/L4T1A2.jpg","39","restless",0.2,0.4,0.9,0.358901234880909,"true"
"image-keyboard-response",117,259356,"0.0-3.35-1.35","rhx7eruteguet17",7,"176.csv","","null","resources/maskTrios/BBA2.jpg","null","",NA,NA,NA,NA,""
"image-keyboard-response",118,260574,"0.0-3.35-2.35","rhx7eruteguet17",7,"176.csv","","null","resources/images/coin2.png","null","",NA,NA,NA,NA,""
"image-keyboard-response",119,262728,"0.0-3.36-0.36","rhx7eruteguet17",7,"176.csv","","2151.800000011921","resources/trios/L4T2A3.jpg","38","restless",0.3,0.4,0.9,0.421639161899731,"false"
"image-keyboard-response",120,263134,"0.0-3.36-1.36","rhx7eruteguet17",7,"176.csv","","null","resources/maskTrios/BT2B.jpg","null","",NA,NA,NA,NA,""
"image-keyboard-response",121,264343,"0.0-3.36-2.36","rhx7eruteguet17",7,"176.csv","","null","resources/images/fishbone.png","null","",NA,NA,NA,NA,""
"image-keyboard-response",122,266392,"0.0-3.37-0.37","rhx7eruteguet17",7,"176.csv","","2046.7999999523163","resources/trios/L4T1A2.jpg","37","restless",0.3,0.4,0.9,0.577838197109452,"false"
"image-keyboard-response",123,266795,"0.0-3.37-1.37","rhx7eruteguet17",7,"176.csv","","null","resources/maskTrios/L4BB.jpg","null","",NA,NA,NA,NA,""
"image-keyboard-response",124,267998,"0.0-3.37-2.37","rhx7eruteguet17",7,"176.csv","","null","resources/images/fishbone.png","null","",NA,NA,NA,NA,""
"image-keyboard-response",125,268432,"0.0-3.38-0.38","rhx7eruteguet17",7,"176.csv","","431.19999998807907","resources/trios/L1T2A2.jpg","39","restless",0.3,0.4,0.9,0.233847569720328,"true"
"image-keyboard-response",126,268835,"0.0-3.38-1.38","rhx7eruteguet17",7,"176.csv","","null","resources/maskTrios/BBA2.jpg","null","",NA,NA,NA,NA,""
"image-keyboard-response",127,270047,"0.0-3.38-2.38","rhx7eruteguet17",7,"176.csv","","null","resources/images/coin2.png","null","",NA,NA,NA,NA,""
"image-keyboard-response",128,270295,"0.0-3.39-0.39","rhx7eruteguet17",7,"176.csv","","245","resources/trios/L1T2A2.jpg","39","restless",0.2,0.4,0.9,0.665141430881008,"true"
"image-keyboard-response",129,270705,"0.0-3.39-1.39","rhx7eruteguet17",7,"176.csv","","null","resources/maskTrios/BBA2.jpg","null","",NA,NA,NA,NA,""
"image-keyboard-response",130,271924,"0.0-3.39-2.39","rhx7eruteguet17",7,"176.csv","","null","resources/images/coin2.png","null","",NA,NA,NA,NA,""
"image-keyboard-response",131,272728,"0.0-3.40-0.40","rhx7eruteguet17",7,"176.csv","","801.3000000119209","resources/trios/L4T1A2.jpg","39","restless",0.2,0.4,0.9,0.465632819506656,"true"
"image-keyboard-response",132,273132,"0.0-3.40-1.40","rhx7eruteguet17",7,"176.csv","","null","resources/maskTrios/BBA2.jpg","null","",NA,NA,NA,NA,""
"image-keyboard-response",133,274337,"0.0-3.40-2.40","rhx7eruteguet17",7,"176.csv","","null","resources/images/coin2.png","null","",NA,NA,NA,NA,""
"image-keyboard-response",134,275128,"0.0-3.41-0.41","rhx7eruteguet17",7,"176.csv","","789.5","resources/trios/L4T2A2.jpg","39","restless",0.2,0.4,0.9,0.877565767911693,"true"
"image-keyboard-response",135,275545,"0.0-3.41-1.41","rhx7eruteguet17",7,"176.csv","","null","resources/maskTrios/BBA2.jpg","null","",NA,NA,NA,NA,""
"image-keyboard-response",136,276748,"0.0-3.41-2.41","rhx7eruteguet17",7,"176.csv","","null","resources/images/coin2.png","null","",NA,NA,NA,NA,""
"image-keyboard-response",137,277559,"0.0-3.42-0.42","rhx7eruteguet17",7,"176.csv","","809.1000000238419","resources/trios/L1T1A2.jpg","39","restless",0.2,0.4,0.9,0.531696683103437,"true"
"image-keyboard-response",138,277973,"0.0-3.42-1.42","rhx7eruteguet17",7,"176.csv","","null","resources/maskTrios/BBA2.jpg","null","",NA,NA,NA,NA,""
"image-keyboard-response",139,279192,"0.0-3.42-2.42","rhx7eruteguet17",7,"176.csv","","null","resources/images/coin2.png","null","",NA,NA,NA,NA,""
"image-keyboard-response",140,280336,"0.0-3.43-0.43","rhx7eruteguet17",7,"176.csv","","1141.1000000238419","resources/trios/L4T1A3.jpg","39","restless",0.2,0.4,0.9,0.321908247561791,"true"
"image-keyboard-response",141,280756,"0.0-3.43-1.43","rhx7eruteguet17",7,"176.csv","","null","resources/maskTrios/BBA3.jpg","null","",NA,NA,NA,NA,""
"image-keyboard-response",142,281968,"0.0-3.43-2.43","rhx7eruteguet17",7,"176.csv","","null","resources/images/coin2.png","null","",NA,NA,NA,NA,""
"image-keyboard-response",143,282800,"0.0-3.44-0.44","rhx7eruteguet17",7,"176.csv","","829.1000000238419","resources/trios/L1T2A2.jpg","38","restless",0.2,0.4,0.9,0.596368182319601,"false"
"image-keyboard-response",144,283217,"0.0-3.44-1.44","rhx7eruteguet17",7,"176.csv","","null","resources/maskTrios/BT2B.jpg","null","",NA,NA,NA,NA,""
"image-keyboard-response",145,284423,"0.0-3.44-2.44","rhx7eruteguet17",7,"176.csv","","null","resources/images/fishbone.png","null","",NA,NA,NA,NA,""
"image-keyboard-response",146,284631,"0.0-3.45-0.45","rhx7eruteguet17",7,"176.csv","","205.30000001192093","resources/trios/L4T2A2.jpg","39","restless",0.3,0.4,0.9,0.301570233582659,"true"
"image-keyboard-response",147,285044,"0.0-3.45-1.45","rhx7eruteguet17",7,"176.csv","","null","resources/maskTrios/BBA2.jpg","null","",NA,NA,NA,NA,""
"image-keyboard-response",148,286247,"0.0-3.45-2.45","rhx7eruteguet17",7,"176.csv","","null","resources/images/coin2.png","null","",NA,NA,NA,NA,""
"image-keyboard-response",149,286504,"0.0-3.46-0.46","rhx7eruteguet17",7,"176.csv","","254.69999998807907","resources/trios/L4T2A2.jpg","39","restless",0.3,0.4,0.9,0.0944551216382423,"true"
"image-keyboard-response",150,286907,"0.0-3.46-1.46","rhx7eruteguet17",7,"176.csv","","null","resources/maskTrios/BBA2.jpg","null","",NA,NA,NA,NA,""
"image-keyboard-response",151,288109,"0.0-3.46-2.46","rhx7eruteguet17",7,"176.csv","","null","resources/images/coin2.png","null","",NA,NA,NA,NA,""
"image-keyboard-response",152,288351,"0.0-3.47-0.47","rhx7eruteguet17",7,"176.csv","","238.80000001192093","resources/trios/L1T1A3.jpg","39","restless",0.3,0.4,0.9,0.165335705389823,"true"
"image-keyboard-response",153,288768,"0.0-3.47-1.47","rhx7eruteguet17",7,"176.csv","","null","resources/maskTrios/BBA3.jpg","null","",NA,NA,NA,NA,""
"image-keyboard-response",154,289976,"0.0-3.47-2.47","rhx7eruteguet17",7,"176.csv","","null","resources/images/coin2.png","null","",NA,NA,NA,NA,""
"image-keyboard-response",155,290297,"0.0-3.48-0.48","rhx7eruteguet17",7,"176.csv","","318.30000001192093","resources/trios/L1T1A2.jpg","39","restless",0.4,0.4,0.9,0.233409571943244,"true"
"image-keyboard-response",156,290702,"0.0-3.48-1.48","rhx7eruteguet17",7,"176.csv","","null","resources/maskTrios/BBA2.jpg","null","",NA,NA,NA,NA,""
"image-keyboard-response",157,291906,"0.0-3.48-2.48","rhx7eruteguet17",7,"176.csv","","null","resources/images/coin2.png","null","",NA,NA,NA,NA,""
"image-keyboard-response",158,292137,"0.0-3.49-0.49","rhx7eruteguet17",7,"176.csv","","228.0999999642372","resources/trios/L1T1A2.jpg","39","restless",0.4,0.4,0.9,0.906863177869988,"false"
"image-keyboard-response",159,292549,"0.0-3.49-1.49","rhx7eruteguet17",7,"176.csv","","null","resources/maskTrios/BBA2.jpg","null","",NA,NA,NA,NA,""
"image-keyboard-response",160,293766,"0.0-3.49-2.49","rhx7eruteguet17",7,"176.csv","","null","resources/images/fishbone.png","null","",NA,NA,NA,NA,""
"image-keyboard-response",161,296096,"0.0-3.50-0.50","rhx7eruteguet17",7,"176.csv","","2328.100000023842","resources/trios/L1T2A2.jpg","39","restless",0.4,0.5,0.9,0.561313064959331,"true"
"image-keyboard-response",162,296510,"0.0-3.50-1.50","rhx7eruteguet17",7,"176.csv","","null","resources/maskTrios/BBA2.jpg","null","",NA,NA,NA,NA,""
"image-keyboard-response",163,297715,"0.0-3.50-2.50","rhx7eruteguet17",7,"176.csv","","null","resources/images/coin2.png","null","",NA,NA,NA,NA,""
"image-keyboard-response",164,298032,"0.0-3.51-0.51","rhx7eruteguet17",7,"176.csv","","314.5","resources/trios/L1T2A2.jpg","39","restless",0.4,0.5,0.9,0.431738956504958,"true"
"image-keyboard-response",165,298449,"0.0-3.51-1.51","rhx7eruteguet17",7,"176.csv","","null","resources/maskTrios/BBA2.jpg","null","",NA,NA,NA,NA,""
"image-keyboard-response",166,299663,"0.0-3.51-2.51","rhx7eruteguet17",7,"176.csv","","null","resources/images/coin2.png","null","",NA,NA,NA,NA,""
"image-keyboard-response",167,300120,"0.0-3.52-0.52","rhx7eruteguet17",7,"176.csv","","452.4000000357628","resources/trios/L1T1A3.jpg","39","restless",0.4,0.5,0.9,0.518668105794087,"true"
"image-keyboard-response",168,300538,"0.0-3.52-1.52","rhx7eruteguet17",7,"176.csv","","null","resources/maskTrios/BBA3.jpg","null","",NA,NA,NA,NA,""
"image-keyboard-response",169,301751,"0.0-3.52-2.52","rhx7eruteguet17",7,"176.csv","","null","resources/images/coin2.png","null","",NA,NA,NA,NA,""
"image-keyboard-response",170,302064,"0.0-3.53-0.53","rhx7eruteguet17",7,"176.csv","","310.19999998807907","resources/trios/L1T1A2.jpg","39","restless",0.4,0.5,0.9,0.918182745374976,"false"
"image-keyboard-response",171,302482,"0.0-3.53-1.53","rhx7eruteguet17",7,"176.csv","","null","resources/maskTrios/BBA2.jpg","null","",NA,NA,NA,NA,""
"image-keyboard-response",172,303695,"0.0-3.53-2.53","rhx7eruteguet17",7,"176.csv","","null","resources/images/fishbone.png","null","",NA,NA,NA,NA,""
"image-keyboard-response",173,307480,"0.0-3.54-0.54","rhx7eruteguet17",7,"176.csv","","3781.199999988079","resources/trios/L4T1A3.jpg","38","restless",0.4,0.5,0.9,0.577620467322362,"false"
"image-keyboard-response",174,307887,"0.0-3.54-1.54","rhx7eruteguet17",7,"176.csv","","null","resources/maskTrios/BT1B.jpg","null","",NA,NA,NA,NA,""
"image-keyboard-response",175,309098,"0.0-3.54-2.54","rhx7eruteguet17",7,"176.csv","","null","resources/images/fishbone.png","null","",NA,NA,NA,NA,""
"image-keyboard-response",176,311823,"0.0-3.55-0.55","rhx7eruteguet17",7,"176.csv","","2722.199999988079","resources/trios/L1T2A3.jpg","39","restless",0.4,0.5,0.9,0.557134990781304,"true"
"image-keyboard-response",177,312233,"0.0-3.55-1.55","rhx7eruteguet17",7,"176.csv","","null","resources/maskTrios/BBA3.jpg","null","",NA,NA,NA,NA,""
"image-keyboard-response",178,313450,"0.0-3.55-2.55","rhx7eruteguet17",7,"176.csv","","null","resources/images/coin2.png","null","",NA,NA,NA,NA,""
"image-keyboard-response",179,314656,"0.0-3.56-0.56","rhx7eruteguet17",7,"176.csv","","1202.800000011921","resources/trios/L4T2A3.jpg","39","restless",0.4,0.5,0.9,0.791507824551416,"true"
"image-keyboard-response",180,315067,"0.0-3.56-1.56","rhx7eruteguet17",7,"176.csv","","null","resources/maskTrios/BBA3.jpg","null","",NA,NA,NA,NA,""
"image-keyboard-response",181,316283,"0.0-3.56-2.56","rhx7eruteguet17",7,"176.csv","","null","resources/images/coin2.png","null","",NA,NA,NA,NA,""
"image-keyboard-response",182,317351,"0.0-3.57-0.57","rhx7eruteguet17",7,"176.csv","","1065.2999999523163","resources/trios/L4T2A3.jpg","39","restless",0.4,0.5,0.9,0.732710471656363,"true"
"image-keyboard-response",183,317763,"0.0-3.57-1.57","rhx7eruteguet17",7,"176.csv","","null","resources/maskTrios/BBA3.jpg","null","",NA,NA,NA,NA,""
"image-keyboard-response",184,318977,"0.0-3.57-2.57","rhx7eruteguet17",7,"176.csv","","null","resources/images/coin2.png","null","",NA,NA,NA,NA,""
"image-keyboard-response",185,322639,"0.0-3.58-0.58","rhx7eruteguet17",7,"176.csv","","3659.7999999523163","resources/trios/L1T2A2.jpg","38","restless",0.4,0.5,0.8,0.650647546056959,"false"
"image-keyboard-response",186,323045,"0.0-3.58-1.58","rhx7eruteguet17",7,"176.csv","","null","resources/maskTrios/BT2B.jpg","null","",NA,NA,NA,NA,""
"image-keyboard-response",187,324257,"0.0-3.58-2.58","rhx7eruteguet17",7,"176.csv","","null","resources/images/fishbone.png","null","",NA,NA,NA,NA,""
"image-keyboard-response",188,325055,"0.0-3.59-0.59","rhx7eruteguet17",7,"176.csv","","796","resources/trios/L1T1A2.jpg","39","restless",0.4,0.5,0.8,0.969388621815136,"false"
"image-keyboard-response",189,325459,"0.0-3.59-1.59","rhx7eruteguet17",7,"176.csv","","null","resources/maskTrios/BBA2.jpg","null","",NA,NA,NA,NA,""
"image-keyboard-response",190,326669,"0.0-3.59-2.59","rhx7eruteguet17",7,"176.csv","","null","resources/images/fishbone.png","null","",NA,NA,NA,NA,""
"image-keyboard-response",191,327392,"0.0-3.60-0.60","rhx7eruteguet17",7,"176.csv","","721.1999999880791","resources/trios/L1T1A2.jpg","37","restless",0.4,0.6,0.9,0.821071538907019,"false"
"image-keyboard-response",192,327803,"0.0-3.60-1.60","rhx7eruteguet17",7,"176.csv","","null","resources/maskTrios/L1BB.jpg","null","",NA,NA,NA,NA,""
"image-keyboard-response",193,329020,"0.0-3.60-2.60","rhx7eruteguet17",7,"176.csv","","null","resources/images/fishbone.png","null","",NA,NA,NA,NA,""
"image-keyboard-response",194,329447,"0.0-3.61-0.61","rhx7eruteguet17",7,"176.csv","","424.69999998807907","resources/trios/L1T2A3.jpg","39","restless",0.4,0.6,0.9,0.0236545635881036,"true"
"image-keyboard-response",195,329862,"0.0-3.61-1.61","rhx7eruteguet17",7,"176.csv","","null","resources/maskTrios/BBA3.jpg","null","",NA,NA,NA,NA,""
"image-keyboard-response",196,331066,"0.0-3.61-2.61","rhx7eruteguet17",7,"176.csv","","null","resources/images/coin2.png","null","",NA,NA,NA,NA,""
"image-keyboard-response",197,333639,"0.0-3.62-0.62","rhx7eruteguet17",7,"176.csv","","2571","resources/trios/L4T1A2.jpg","39","restless",0.4,0.6,0.9,0.91099310571886,"false"
"image-keyboard-response",198,334050,"0.0-3.62-1.62","rhx7eruteguet17",7,"176.csv","","null","resources/maskTrios/BBA2.jpg","null","",NA,NA,NA,NA,""
"image-keyboard-response",199,335264,"0.0-3.62-2.62","rhx7eruteguet17",7,"176.csv","","null","resources/images/fishbone.png","null","",NA,NA,NA,NA,""
"image-keyboard-response",200,339095,"0.0-3.63-0.63","rhx7eruteguet17",7,"176.csv","","3829.5","resources/trios/L4T1A2.jpg","37","restless",0.4,0.6,0.9,0.78289494756533,"false"
"image-keyboard-response",201,339510,"0.0-3.63-1.63","rhx7eruteguet17",7,"176.csv","","null","resources/maskTrios/L4BB.jpg","null","",NA,NA,NA,NA,""
"image-keyboard-response",202,340722,"0.0-3.63-2.63","rhx7eruteguet17",7,"176.csv","","null","resources/images/fishbone.png","null","",NA,NA,NA,NA,""
"image-keyboard-response",203,340991,"0.0-3.64-0.64","rhx7eruteguet17",7,"176.csv","","266.19999998807907","resources/trios/L1T2A2.jpg","39","restless",0.4,0.6,0.9,0.49838168106068,"true"
"image-keyboard-response",204,341393,"0.0-3.64-1.64","rhx7eruteguet17",7,"176.csv","","null","resources/maskTrios/BBA2.jpg","null","",NA,NA,NA,NA,""
"image-keyboard-response",205,342601,"0.0-3.64-2.64","rhx7eruteguet17",7,"176.csv","","null","resources/images/coin2.png","null","",NA,NA,NA,NA,""
"image-keyboard-response",206,343168,"0.0-3.65-0.65","rhx7eruteguet17",7,"176.csv","","564","resources/trios/L1T1A3.jpg","39","restless",0.4,0.6,0.9,0.698164889020974,"true"
"image-keyboard-response",207,343576,"0.0-3.65-1.65","rhx7eruteguet17",7,"176.csv","","null","resources/maskTrios/BBA3.jpg","null","",NA,NA,NA,NA,""
"image-keyboard-response",208,344783,"0.0-3.65-2.65","rhx7eruteguet17",7,"176.csv","","null","resources/images/coin2.png","null","",NA,NA,NA,NA,""
"image-keyboard-response",209,345879,"0.0-3.66-0.66","rhx7eruteguet17",7,"176.csv","","1094.300000011921","resources/trios/L4T2A2.jpg","39","restless",0.4,0.6,0.9,0.570439520247215,"true"
"image-keyboard-response",210,346285,"0.0-3.66-1.66","rhx7eruteguet17",7,"176.csv","","null","resources/maskTrios/BBA2.jpg","null","",NA,NA,NA,NA,""
"image-keyboard-response",211,347487,"0.0-3.66-2.66","rhx7eruteguet17",7,"176.csv","","null","resources/images/coin2.png","null","",NA,NA,NA,NA,""
"image-keyboard-response",212,349551,"0.0-3.67-0.67","rhx7eruteguet17",7,"176.csv","","2061.900000035763","resources/trios/L1T2A3.jpg","39","restless",0.4,0.6,0.9,0.19786890571759,"true"
"image-keyboard-response",213,349957,"0.0-3.67-1.67","rhx7eruteguet17",7,"176.csv","","null","resources/maskTrios/BBA3.jpg","null","",NA,NA,NA,NA,""
"image-keyboard-response",214,351165,"0.0-3.67-2.67","rhx7eruteguet17",7,"176.csv","","null","resources/images/coin2.png","null","",NA,NA,NA,NA,""
"image-keyboard-response",215,353184,"0.0-3.68-0.68","rhx7eruteguet17",7,"176.csv","","2017","resources/trios/L1T1A3.jpg","39","restless",0.4,0.6,0.9,0.307829288281367,"true"
"image-keyboard-response",216,353596,"0.0-3.68-1.68","rhx7eruteguet17",7,"176.csv","","null","resources/maskTrios/BBA3.jpg","null","",NA,NA,NA,NA,""
"image-keyboard-response",217,354809,"0.0-3.68-2.68","rhx7eruteguet17",7,"176.csv","","null","resources/images/coin2.png","null","",NA,NA,NA,NA,""
"image-keyboard-response",218,356063,"0.0-3.69-0.69","rhx7eruteguet17",7,"176.csv","","1250.1000000238419","resources/trios/L1T1A2.jpg","39","restless",0.4,0.6,0.9,0.0991003714755283,"true"
"image-keyboard-response",219,356478,"0.0-3.69-1.69","rhx7eruteguet17",7,"176.csv","","null","resources/maskTrios/BBA2.jpg","null","",NA,NA,NA,NA,""
"image-keyboard-response",220,357687,"0.0-3.69-2.69","rhx7eruteguet17",7,"176.csv","","null","resources/images/coin2.png","null","",NA,NA,NA,NA,""
"image-keyboard-response",221,358559,"0.0-3.70-0.70","rhx7eruteguet17",7,"176.csv","","869.5","resources/trios/L1T2A2.jpg","39","restless",0.4,0.6,0.9,0.208613158621965,"true"
"image-keyboard-response",222,358968,"0.0-3.70-1.70","rhx7eruteguet17",7,"176.csv","","null","resources/maskTrios/BBA2.jpg","null","",NA,NA,NA,NA,""
"image-keyboard-response",223,360184,"0.0-3.70-2.70","rhx7eruteguet17",7,"176.csv","","null","resources/images/coin2.png","null","",NA,NA,NA,NA,""
"image-keyboard-response",224,363487,"0.0-3.71-0.71","rhx7eruteguet17",7,"176.csv","","3300.5","resources/trios/L4T1A2.jpg","39","restless",0.4,0.5,0.9,0.69774871923707,"true"
"image-keyboard-response",225,363894,"0.0-3.71-1.71","rhx7eruteguet17",7,"176.csv","","null","resources/maskTrios/BBA2.jpg","null","",NA,NA,NA,NA,""
"image-keyboard-response",226,365105,"0.0-3.71-2.71","rhx7eruteguet17",7,"176.csv","","null","resources/images/coin2.png","null","",NA,NA,NA,NA,""
"image-keyboard-response",227,366440,"0.0-3.72-0.72","rhx7eruteguet17",7,"176.csv","","1332.5","resources/trios/L1T2A3.jpg","39","restless",0.4,0.6,0.9,0.384006954461365,"true"
"image-keyboard-response",228,366852,"0.0-3.72-1.72","rhx7eruteguet17",7,"176.csv","","null","resources/maskTrios/BBA3.jpg","null","",NA,NA,NA,NA,""
"image-keyboard-response",229,368065,"0.0-3.72-2.72","rhx7eruteguet17",7,"176.csv","","null","resources/images/coin2.png","null","",NA,NA,NA,NA,""
"image-keyboard-response",230,369479,"0.0-3.73-0.73","rhx7eruteguet17",7,"176.csv","","1412.199999988079","resources/trios/L4T2A3.jpg","39","restless",0.4,0.6,0.9,0.94488622166723,"false"
"image-keyboard-response",231,369889,"0.0-3.73-1.73","rhx7eruteguet17",7,"176.csv","","null","resources/maskTrios/BBA3.jpg","null","",NA,NA,NA,NA,""
"image-keyboard-response",232,371092,"0.0-3.73-2.73","rhx7eruteguet17",7,"176.csv","","null","resources/images/fishbone.png","null","",NA,NA,NA,NA,""
"image-keyboard-response",233,373168,"0.0-3.74-0.74","rhx7eruteguet17",7,"176.csv","","2074.300000011921","resources/trios/L4T2A2.jpg","39","restless",0.4,0.6,0.9,0.111520332773643,"true"
"image-keyboard-response",234,373583,"0.0-3.74-1.74","rhx7eruteguet17",7,"176.csv","","null","resources/maskTrios/BBA2.jpg","null","",NA,NA,NA,NA,""
"image-keyboard-response",235,374800,"0.0-3.74-2.74","rhx7eruteguet17",7,"176.csv","","null","resources/images/coin2.png","null","",NA,NA,NA,NA,""
"image-keyboard-response",236,375079,"0.0-3.75-0.75","rhx7eruteguet17",7,"176.csv","","277","resources/trios/L1T1A2.jpg","39","restless",0.3,0.6,0.9,0.322742005862282,"true"
"image-keyboard-response",237,375490,"0.0-3.75-1.75","rhx7eruteguet17",7,"176.csv","","null","resources/maskTrios/BBA2.jpg","null","",NA,NA,NA,NA,""
"image-keyboard-response",238,376700,"0.0-3.75-2.75","rhx7eruteguet17",7,"176.csv","","null","resources/images/coin2.png","null","",NA,NA,NA,NA,""
"image-keyboard-response",239,377135,"0.0-3.76-0.76","rhx7eruteguet17",7,"176.csv","","433","resources/trios/L1T2A2.jpg","39","restless",0.3,0.6,0.8,0.100321462630391,"true"
"image-keyboard-response",240,377550,"0.0-3.76-1.76","rhx7eruteguet17",7,"176.csv","","null","resources/maskTrios/BBA2.jpg","null","",NA,NA,NA,NA,""
"image-keyboard-response",241,378763,"0.0-3.76-2.76","rhx7eruteguet17",7,"176.csv","","null","resources/images/coin2.png","null","",NA,NA,NA,NA,""
"image-keyboard-response",242,379551,"0.0-3.77-0.77","rhx7eruteguet17",7,"176.csv","","784.8000000119209","resources/trios/L4T1A3.jpg","39","restless",0.3,0.6,0.8,0.95569804151395,"false"
"image-keyboard-response",243,379967,"0.0-3.77-1.77","rhx7eruteguet17",7,"176.csv","","null","resources/maskTrios/BBA3.jpg","null","",NA,NA,NA,NA,""
"image-keyboard-response",244,381172,"0.0-3.77-2.77","rhx7eruteguet17",7,"176.csv","","null","resources/images/fishbone.png","null","",NA,NA,NA,NA,""
"image-keyboard-response",245,383289,"0.0-3.78-0.78","rhx7eruteguet17",7,"176.csv","","2114.199999988079","resources/trios/L4T2A2.jpg","39","restless",0.3,0.6,0.8,0.386956837029691,"true"
"image-keyboard-response",246,383706,"0.0-3.78-1.78","rhx7eruteguet17",7,"176.csv","","null","resources/maskTrios/BBA2.jpg","null","",NA,NA,NA,NA,""
"image-keyboard-response",247,384912,"0.0-3.78-2.78","rhx7eruteguet17",7,"176.csv","","null","resources/images/coin2.png","null","",NA,NA,NA,NA,""
"image-keyboard-response",248,385224,"0.0-3.79-0.79","rhx7eruteguet17",7,"176.csv","","308.69999998807907","resources/trios/L4T2A3.jpg","39","restless",0.3,0.6,0.8,0.385829993609787,"true"
"image-keyboard-response",249,385637,"0.0-3.79-1.79","rhx7eruteguet17",7,"176.csv","","null","resources/maskTrios/BBA3.jpg","null","",NA,NA,NA,NA,""
"image-keyboard-response",250,386846,"0.0-3.79-2.79","rhx7eruteguet17",7,"176.csv","","null","resources/images/coin2.png","null","",NA,NA,NA,NA,""
"image-keyboard-response",251,387128,"0.0-3.80-0.80","rhx7eruteguet17",7,"176.csv","","280.5","resources/trios/L1T2A2.jpg","39","restless",0.4,0.6,0.9,0.862012446215954,"true"
"image-keyboard-response",252,387535,"0.0-3.80-1.80","rhx7eruteguet17",7,"176.csv","","null","resources/maskTrios/BBA2.jpg","null","",NA,NA,NA,NA,""
"image-keyboard-response",253,388743,"0.0-3.80-2.80","rhx7eruteguet17",7,"176.csv","","null","resources/images/coin2.png","null","",NA,NA,NA,NA,""
"image-keyboard-response",254,389416,"0.0-3.81-0.81","rhx7eruteguet17",7,"176.csv","","668.6999999880791","resources/trios/L4T2A2.jpg","39","restless",0.4,0.6,0.9,0.960081409504408,"false"
"image-keyboard-response",255,389833,"0.0-3.81-1.81","rhx7eruteguet17",7,"176.csv","","null","resources/maskTrios/BBA2.jpg","null","",NA,NA,NA,NA,""
"image-keyboard-response",256,391048,"0.0-3.81-2.81","rhx7eruteguet17",7,"176.csv","","null","resources/images/fishbone.png","null","",NA,NA,NA,NA,""
"image-keyboard-response",257,391567,"0.0-3.82-0.82","rhx7eruteguet17",7,"176.csv","","516.6000000238419","resources/trios/L1T1A2.jpg","39","restless",0.4,0.6,0.9,0.905785727244184,"false"
"image-keyboard-response",258,391983,"0.0-3.82-1.82","rhx7eruteguet17",7,"176.csv","","null","resources/maskTrios/BBA2.jpg","null","",NA,NA,NA,NA,""
"image-keyboard-response",259,393188,"0.0-3.82-2.82","rhx7eruteguet17",7,"176.csv","","null","resources/images/fishbone.png","null","",NA,NA,NA,NA,""
"image-keyboard-response",260,395280,"0.0-3.83-0.83","rhx7eruteguet17",7,"176.csv","","2088.600000023842","resources/trios/L1T2A3.jpg","38","restless",0.5,0.6,0.9,0.653712304865624,"false"
"image-keyboard-response",261,395696,"0.0-3.83-1.83","rhx7eruteguet17",7,"176.csv","","null","resources/maskTrios/BT2B.jpg","null","",NA,NA,NA,NA,""
"image-keyboard-response",262,396900,"0.0-3.83-2.83","rhx7eruteguet17",7,"176.csv","","null","resources/images/fishbone.png","null","",NA,NA,NA,NA,""
"image-keyboard-response",263,397263,"0.0-3.84-0.84","rhx7eruteguet17",7,"176.csv","","359.60000002384186","resources/trios/L1T1A2.jpg","37","restless",0.5,0.6,0.9,0.385455609140757,"true"
"image-keyboard-response",264,397669,"0.0-3.84-1.84","rhx7eruteguet17",7,"176.csv","","null","resources/maskTrios/L1BB.jpg","null","",NA,NA,NA,NA,""
"image-keyboard-response",265,398880,"0.0-3.84-2.84","rhx7eruteguet17",7,"176.csv","","null","resources/images/coin2.png","null","",NA,NA,NA,NA,""
"image-keyboard-response",266,399415,"0.0-3.85-0.85","rhx7eruteguet17",7,"176.csv","","532.1999999880791","resources/trios/L4T1A3.jpg","37","restless",0.5,0.6,0.9,0.372154227692922,"true"
"image-keyboard-response",267,399828,"0.0-3.85-1.85","rhx7eruteguet17",7,"176.csv","","null","resources/maskTrios/L4BB.jpg","null","",NA,NA,NA,NA,""
"image-keyboard-response",268,401032,"0.0-3.85-2.85","rhx7eruteguet17",7,"176.csv","","null","resources/images/coin2.png","null","",NA,NA,NA,NA,""
"image-keyboard-response",269,401383,"0.0-3.86-0.86","rhx7eruteguet17",7,"176.csv","","349.0999999642372","resources/trios/L4T1A2.jpg","37","restless",0.5,0.7,0.9,0.655450356355955,"false"
"image-keyboard-response",270,401800,"0.0-3.86-1.86","rhx7eruteguet17",7,"176.csv","","null","resources/maskTrios/L4BB.jpg","null","",NA,NA,NA,NA,""
"image-keyboard-response",271,403016,"0.0-3.86-2.86","rhx7eruteguet17",7,"176.csv","","null","resources/images/fishbone.png","null","",NA,NA,NA,NA,""
"image-keyboard-response",272,403367,"0.0-3.87-0.87","rhx7eruteguet17",7,"176.csv","","348.5","resources/trios/L4T2A3.jpg","39","restless",0.5,0.7,0.9,0.686924639879526,"true"
"image-keyboard-response",273,403785,"0.0-3.87-1.87","rhx7eruteguet17",7,"176.csv","","null","resources/maskTrios/BBA3.jpg","null","",NA,NA,NA,NA,""
"image-keyboard-response",274,405002,"0.0-3.87-2.87","rhx7eruteguet17",7,"176.csv","","null","resources/images/coin2.png","null","",NA,NA,NA,NA,""
"image-keyboard-response",275,405615,"0.0-3.88-0.88","rhx7eruteguet17",7,"176.csv","","610.1999999880791","resources/trios/L1T2A2.jpg","39","restless",0.6,0.7,0.9,0.818954150364009,"true"
"image-keyboard-response",276,406019,"0.0-3.88-1.88","rhx7eruteguet17",7,"176.csv","","null","resources/maskTrios/BBA2.jpg","null","",NA,NA,NA,NA,""
"image-keyboard-response",277,407225,"0.0-3.88-2.88","rhx7eruteguet17",7,"176.csv","","null","resources/images/coin2.png","null","",NA,NA,NA,NA,""
"image-keyboard-response",278,409328,"0.0-3.89-0.89","rhx7eruteguet17",7,"176.csv","","2099.800000011921","resources/trios/L1T1A3.jpg","39","restless",0.6,0.7,0.9,0.117111396251048,"true"
"image-keyboard-response",279,409744,"0.0-3.89-1.89","rhx7eruteguet17",7,"176.csv","","null","resources/maskTrios/BBA3.jpg","null","",NA,NA,NA,NA,""
"image-keyboard-response",280,410956,"0.0-3.89-2.89","rhx7eruteguet17",7,"176.csv","","null","resources/images/coin2.png","null","",NA,NA,NA,NA,""
"image-keyboard-response",281,412231,"0.0-3.90-0.90","rhx7eruteguet17",7,"176.csv","","1270.800000011921","resources/trios/L1T1A3.jpg","39","restless",0.6,0.7,0.9,0.470846559651455,"true"
"image-keyboard-response",282,412643,"0.0-3.90-1.90","rhx7eruteguet17",7,"176.csv","","null","resources/maskTrios/BBA3.jpg","null","",NA,NA,NA,NA,""
"image-keyboard-response",283,413849,"0.0-3.90-2.90","rhx7eruteguet17",7,"176.csv","","null","resources/images/coin2.png","null","",NA,NA,NA,NA,""
"image-keyboard-response",284,417536,"0.0-3.91-0.91","rhx7eruteguet17",7,"176.csv","","3683.900000035763","resources/trios/L4T2A3.jpg","39","restless",0.6,0.7,0.9,0.49827880617748,"true"
"image-keyboard-response",285,417944,"0.0-3.91-1.91","rhx7eruteguet17",7,"176.csv","","null","resources/maskTrios/BBA3.jpg","null","",NA,NA,NA,NA,""
"image-keyboard-response",286,419160,"0.0-3.91-2.91","rhx7eruteguet17",7,"176.csv","","null","resources/images/coin2.png","null","",NA,NA,NA,NA,""
"image-keyboard-response",287,420943,"0.0-3.92-0.92","rhx7eruteguet17",7,"176.csv","","1780.5","resources/trios/L4T2A3.jpg","39","restless",0.5,0.7,0.9,0.501793314143807,"true"
"image-keyboard-response",288,421350,"0.0-3.92-1.92","rhx7eruteguet17",7,"176.csv","","null","resources/maskTrios/BBA3.jpg","null","",NA,NA,NA,NA,""
"image-keyboard-response",289,422565,"0.0-3.92-2.92","rhx7eruteguet17",7,"176.csv","","null","resources/images/coin2.png","null","",NA,NA,NA,NA,""
"image-keyboard-response",290,424799,"0.0-3.93-0.93","rhx7eruteguet17",7,"176.csv","","2232.300000011921","resources/trios/L4T2A3.jpg","39","restless",0.4,0.7,0.8,0.511439268762493,"true"
"image-keyboard-response",291,425215,"0.0-3.93-1.93","rhx7eruteguet17",7,"176.csv","","null","resources/maskTrios/BBA3.jpg","null","",NA,NA,NA,NA,""
"image-keyboard-response",292,426427,"0.0-3.93-2.93","rhx7eruteguet17",7,"176.csv","","null","resources/images/coin2.png","null","",NA,NA,NA,NA,""
"image-keyboard-response",293,428192,"0.0-3.94-0.94","rhx7eruteguet17",7,"176.csv","","1762.699999988079","resources/trios/L4T2A3.jpg","39","restless",0.4,0.7,0.7,0.630771241187608,"true"
"image-keyboard-response",294,428596,"0.0-3.94-1.94","rhx7eruteguet17",7,"176.csv","","null","resources/maskTrios/BBA3.jpg","null","",NA,NA,NA,NA,""
"image-keyboard-response",295,429812,"0.0-3.94-2.94","rhx7eruteguet17",7,"176.csv","","null","resources/images/coin2.png","null","",NA,NA,NA,NA,""
"image-keyboard-response",296,436000,"0.0-3.95-0.95","rhx7eruteguet17",7,"176.csv","","6185.400000035763","resources/trios/L1T2A2.jpg","37","restless",0.4,0.7,0.7,0.975190460674999,"false"
"image-keyboard-response",297,436414,"0.0-3.95-1.95","rhx7eruteguet17",7,"176.csv","","null","resources/maskTrios/L1BB.jpg","null","",NA,NA,NA,NA,""
"image-keyboard-response",298,437618,"0.0-3.95-2.95","rhx7eruteguet17",7,"176.csv","","null","resources/images/fishbone.png","null","",NA,NA,NA,NA,""
"image-keyboard-response",299,439896,"0.0-3.96-0.96","rhx7eruteguet17",7,"176.csv","","2276.399999976158","resources/trios/L4T2A2.jpg","38","restless",0.4,0.7,0.7,0.686517467486749,"true"
"image-keyboard-response",300,440310,"0.0-3.96-1.96","rhx7eruteguet17",7,"176.csv","","null","resources/maskTrios/BT2B.jpg","null","",NA,NA,NA,NA,""
"image-keyboard-response",301,441521,"0.0-3.96-2.96","rhx7eruteguet17",7,"176.csv","","null","resources/images/coin2.png","null","",NA,NA,NA,NA,""
"image-keyboard-response",302,444256,"0.0-3.97-0.97","rhx7eruteguet17",7,"176.csv","","2732.300000011921","resources/trios/L1T2A2.jpg","38","restless",0.4,0.6,0.7,0.0802320948830524,"true"
"image-keyboard-response",303,444669,"0.0-3.97-1.97","rhx7eruteguet17",7,"176.csv","","null","resources/maskTrios/BT2B.jpg","null","",NA,NA,NA,NA,""
"image-keyboard-response",304,445883,"0.0-3.97-2.97","rhx7eruteguet17",7,"176.csv","","null","resources/images/coin2.png","null","",NA,NA,NA,NA,""
"image-keyboard-response",305,453001,"0.0-3.98-0.98","rhx7eruteguet17",7,"176.csv","","7116","resources/trios/L4T2A2.jpg","38","restless",0.4,0.6,0.7,0.722374329382009,"false"
"image-keyboard-response",306,453416,"0.0-3.98-1.98","rhx7eruteguet17",7,"176.csv","","null","resources/maskTrios/BT2B.jpg","null","",NA,NA,NA,NA,""
"image-keyboard-response",307,454626,"0.0-3.98-2.98","rhx7eruteguet17",7,"176.csv","","null","resources/images/fishbone.png","null","",NA,NA,NA,NA,""
"image-keyboard-response",308,456569,"0.0-3.99-0.99","rhx7eruteguet17",7,"176.csv","","1940.5999999642372","resources/trios/L4T1A2.jpg","39","restless",0.4,0.6,0.7,0.514776448548725,"true"
"image-keyboard-response",309,456987,"0.0-3.99-1.99","rhx7eruteguet17",7,"176.csv","","null","resources/maskTrios/BBA2.jpg","null","",NA,NA,NA,NA,""
"image-keyboard-response",310,458191,"0.0-3.99-2.99","rhx7eruteguet17",7,"176.csv","","null","resources/images/coin2.png","null","",NA,NA,NA,NA,""
"image-keyboard-response",311,463840,"0.0-3.100-0.100","rhx7eruteguet17",7,"176.csv","","5646.400000035763","resources/trios/L4T1A3.jpg","39","restless",0.3,0.6,0.6,0.239638387351801,"true"
"image-keyboard-response",312,464255,"0.0-3.100-1.100","rhx7eruteguet17",7,"176.csv","","null","resources/maskTrios/BBA3.jpg","null","",NA,NA,NA,NA,""
"image-keyboard-response",313,465473,"0.0-3.100-2.100","rhx7eruteguet17",7,"176.csv","","null","resources/images/coin2.png","null","",NA,NA,NA,NA,""
"image-keyboard-response",314,468825,"0.0-3.101-0.101","rhx7eruteguet17",7,"176.csv","","3350.199999988079","resources/trios/L4T2A3.jpg","38","restless",0.3,0.6,0.6,0.62549532774149,"false"
"image-keyboard-response",315,469234,"0.0-3.101-1.101","rhx7eruteguet17",7,"176.csv","","null","resources/maskTrios/BT2B.jpg","null","",NA,NA,NA,NA,""
"image-keyboard-response",316,470442,"0.0-3.101-2.101","rhx7eruteguet17",7,"176.csv","","null","resources/images/fishbone.png","null","",NA,NA,NA,NA,""
"image-keyboard-response",317,470704,"0.0-3.102-0.102","rhx7eruteguet17",7,"176.csv","","259.5","resources/trios/L4T2A3.jpg","39","restless",0.4,0.6,0.6,0.840620394518841,"false"
"image-keyboard-response",318,471110,"0.0-3.102-1.102","rhx7eruteguet17",7,"176.csv","","null","resources/maskTrios/BBA3.jpg","null","",NA,NA,NA,NA,""
"image-keyboard-response",319,472318,"0.0-3.102-2.102","rhx7eruteguet17",7,"176.csv","","null","resources/images/fishbone.png","null","",NA,NA,NA,NA,""
"image-keyboard-response",320,473569,"0.0-3.103-0.103","rhx7eruteguet17",7,"176.csv","","1248.699999988079","resources/trios/L1T2A3.jpg","39","restless",0.4,0.6,0.7,0.102537364809769,"true"
"image-keyboard-response",321,473980,"0.0-3.103-1.103","rhx7eruteguet17",7,"176.csv","","null","resources/maskTrios/BBA3.jpg","null","",NA,NA,NA,NA,""
"image-keyboard-response",322,475188,"0.0-3.103-2.103","rhx7eruteguet17",7,"176.csv","","null","resources/images/coin2.png","null","",NA,NA,NA,NA,""
"image-keyboard-response",323,477393,"0.0-3.104-0.104","rhx7eruteguet17",7,"176.csv","","2202.199999988079","resources/trios/L4T1A2.jpg","39","restless",0.4,0.6,0.7,0.230598074553636,"true"
"image-keyboard-response",324,477798,"0.0-3.104-1.104","rhx7eruteguet17",7,"176.csv","","null","resources/maskTrios/BBA2.jpg","null","",NA,NA,NA,NA,""
"image-keyboard-response",325,479016,"0.0-3.104-2.104","rhx7eruteguet17",7,"176.csv","","null","resources/images/coin2.png","null","",NA,NA,NA,NA,""
"image-keyboard-response",326,481921,"0.0-3.105-0.105","rhx7eruteguet17",7,"176.csv","","2900.2000000476837","resources/trios/L1T2A3.jpg","37","restless",0.5,0.6,0.7,0.346095130486475,"true"
"image-keyboard-response",327,482323,"0.0-3.105-1.105","rhx7eruteguet17",7,"176.csv","","null","resources/maskTrios/L1BB.jpg","null","",NA,NA,NA,NA,""
"image-keyboard-response",328,483533,"0.0-3.105-2.105","rhx7eruteguet17",7,"176.csv","","null","resources/images/coin2.png","null","",NA,NA,NA,NA,""
"image-keyboard-response",329,489780,"0.0-3.106-0.106","rhx7eruteguet17",7,"176.csv","","6244.399999976158","resources/trios/L4T1A3.jpg","38","restless",0.5,0.6,0.7,0.632073549453371,"false"
"image-keyboard-response",330,490196,"0.0-3.106-1.106","rhx7eruteguet17",7,"176.csv","","null","resources/maskTrios/BT1B.jpg","null","",NA,NA,NA,NA,""
"image-keyboard-response",331,491410,"0.0-3.106-2.106","rhx7eruteguet17",7,"176.csv","","null","resources/images/fishbone.png","null","",NA,NA,NA,NA,""
"image-keyboard-response",332,493227,"0.0-3.107-0.107","rhx7eruteguet17",7,"176.csv","","1813.699999988079","resources/trios/L1T2A3.jpg","39","restless",0.5,0.5,0.7,0.446636537587386,"true"
"image-keyboard-response",333,493632,"0.0-3.107-1.107","rhx7eruteguet17",7,"176.csv","","null","resources/maskTrios/BBA3.jpg","null","",NA,NA,NA,NA,""
"image-keyboard-response",334,494839,"0.0-3.107-2.107","rhx7eruteguet17",7,"176.csv","","null","resources/images/coin2.png","null","",NA,NA,NA,NA,""
"image-keyboard-response",335,496612,"0.0-3.108-0.108","rhx7eruteguet17",7,"176.csv","","1770.800000011921","resources/trios/L4T2A2.jpg","39","restless",0.5,0.5,0.7,0.764751793277615,"false"
"image-keyboard-response",336,497017,"0.0-3.108-1.108","rhx7eruteguet17",7,"176.csv","","null","resources/maskTrios/BBA2.jpg","null","",NA,NA,NA,NA,""
"image-keyboard-response",337,498231,"0.0-3.108-2.108","rhx7eruteguet17",7,"176.csv","","null","resources/images/fishbone.png","null","",NA,NA,NA,NA,""
"image-keyboard-response",338,535648,"0.0-3.109-0.109","rhx7eruteguet17",7,"176.csv","","37414.19999998808","resources/trios/L4T2A2.jpg","39","restless",0.5,0.5,0.6,0.703652117639283,"false"
"image-keyboard-response",339,536053,"0.0-3.109-1.109","rhx7eruteguet17",7,"176.csv","","null","resources/maskTrios/BBA2.jpg","null","",NA,NA,NA,NA,""
"image-keyboard-response",340,537259,"0.0-3.109-2.109","rhx7eruteguet17",7,"176.csv","","null","resources/images/fishbone.png","null","",NA,NA,NA,NA,""
"image-keyboard-response",341,556641,"0.0-3.110-0.110","rhx7eruteguet17",7,"176.csv","","19379.5","resources/trios/L1T1A3.jpg","39","restless",0.6,0.4,0.6,0.770894192298172,"false"
"image-keyboard-response",342,557051,"0.0-3.110-1.110","rhx7eruteguet17",7,"176.csv","","null","resources/maskTrios/BBA3.jpg","null","",NA,NA,NA,NA,""
"image-keyboard-response",343,558257,"0.0-3.110-2.110","rhx7eruteguet17",7,"176.csv","","null","resources/images/fishbone.png","null","",NA,NA,NA,NA,""
"image-keyboard-response",344,572174,"0.0-3.111-0.111","rhx7eruteguet17",7,"176.csv","","13914.900000035763","resources/trios/L4T1A2.jpg","37","restless",0.6,0.5,0.6,0.38561430637722,"true"
"image-keyboard-response",345,572584,"0.0-3.111-1.111","rhx7eruteguet17",7,"176.csv","","null","resources/maskTrios/L4BB.jpg","null","",NA,NA,NA,NA,""
"image-keyboard-response",346,573799,"0.0-3.111-2.111","rhx7eruteguet17",7,"176.csv","","null","resources/images/coin2.png","null","",NA,NA,NA,NA,""
"image-keyboard-response",347,595822,"0.0-3.112-0.112","rhx7eruteguet17",7,"176.csv","","22021.30000001192","resources/trios/L4T1A3.jpg","39","restless",0.6,0.5,0.6,0.0694336510841862,"true"
"image-keyboard-response",348,596228,"0.0-3.112-1.112","rhx7eruteguet17",7,"176.csv","","null","resources/maskTrios/BBA3.jpg","null","",NA,NA,NA,NA,""
"image-keyboard-response",349,597443,"0.0-3.112-2.112","rhx7eruteguet17",7,"176.csv","","null","resources/images/coin2.png","null","",NA,NA,NA,NA,""
"image-keyboard-response",350,606550,"0.0-3.113-0.113","rhx7eruteguet17",7,"176.csv","","9104.399999976158","resources/trios/L1T1A3.jpg","39","restless",0.7,0.5,0.6,0.0669274719699016,"true"
"image-keyboard-response",351,606957,"0.0-3.113-1.113","rhx7eruteguet17",7,"176.csv","","null","resources/maskTrios/BBA3.jpg","null","",NA,NA,NA,NA,""
"image-keyboard-response",352,608161,"0.0-3.113-2.113","rhx7eruteguet17",7,"176.csv","","null","resources/images/coin2.png","null","",NA,NA,NA,NA,""
"image-keyboard-response",353,624631,"0.0-3.114-0.114","rhx7eruteguet17",7,"176.csv","","16465.799999952316","resources/trios/L1T1A2.jpg","39","restless",0.7,0.5,0.6,0.251929073863251,"true"
"image-keyboard-response",354,625049,"0.0-3.114-1.114","rhx7eruteguet17",7,"176.csv","","null","resources/maskTrios/BBA2.jpg","null","",NA,NA,NA,NA,""
"image-keyboard-response",355,626260,"0.0-3.114-2.114","rhx7eruteguet17",7,"176.csv","","null","resources/images/coin2.png","null","",NA,NA,NA,NA,""
"image-keyboard-response",356,635333,"0.0-3.115-0.115","rhx7eruteguet17",7,"176.csv","","9071.199999988079","resources/trios/L1T1A3.jpg","39","restless",0.7,0.4,0.5,0.670744857916482,"false"
"image-keyboard-response",357,635736,"0.0-3.115-1.115","rhx7eruteguet17",7,"176.csv","","null","resources/maskTrios/BBA3.jpg","null","",NA,NA,NA,NA,""
"image-keyboard-response",358,636947,"0.0-3.115-2.115","rhx7eruteguet17",7,"176.csv","","null","resources/images/fishbone.png","null","",NA,NA,NA,NA,""
"image-keyboard-response",359,642689,"0.0-3.116-0.116","rhx7eruteguet17",7,"176.csv","","5740","resources/trios/L4T1A2.jpg","37","restless",0.6,0.4,0.5,0.0808824619853066,"true"
"image-keyboard-response",360,643100,"0.0-3.116-1.116","rhx7eruteguet17",7,"176.csv","","null","resources/maskTrios/L4BB.jpg","null","",NA,NA,NA,NA,""
"image-keyboard-response",361,644315,"0.0-3.116-2.116","rhx7eruteguet17",7,"176.csv","","null","resources/images/coin2.png","null","",NA,NA,NA,NA,""
"image-keyboard-response",362,648833,"0.0-3.117-0.117","rhx7eruteguet17",7,"176.csv","","4516.100000023842","resources/trios/L4T2A3.jpg","38","restless",0.6,0.4,0.5,0.0940160303431605,"true"
"image-keyboard-response",363,649249,"0.0-3.117-1.117","rhx7eruteguet17",7,"176.csv","","null","resources/maskTrios/BT2B.jpg","null","",NA,NA,NA,NA,""
"image-keyboard-response",364,650457,"0.0-3.117-2.117","rhx7eruteguet17",7,"176.csv","","null","resources/images/coin2.png","null","",NA,NA,NA,NA,""
"image-keyboard-response",365,663827,"0.0-3.118-0.118","rhx7eruteguet17",7,"176.csv","","13368","resources/trios/L4T2A2.jpg","39","restless",0.6,0.5,0.5,0.446355792421196,"true"
"image-keyboard-response",366,664233,"0.0-3.118-1.118","rhx7eruteguet17",7,"176.csv","","null","resources/maskTrios/BBA2.jpg","null","",NA,NA,NA,NA,""
"image-keyboard-response",367,665438,"0.0-3.118-2.118","rhx7eruteguet17",7,"176.csv","","null","resources/images/coin2.png","null","",NA,NA,NA,NA,""
"image-keyboard-response",368,670864,"0.0-3.119-0.119","rhx7eruteguet17",7,"176.csv","","5425","resources/trios/L1T1A3.jpg","39","restless",0.6,0.5,0.5,0.328689512729543,"true"
"image-keyboard-response",369,671271,"0.0-3.119-1.119","rhx7eruteguet17",7,"176.csv","","null","resources/maskTrios/BBA3.jpg","null","",NA,NA,NA,NA,""
"image-keyboard-response",370,672489,"0.0-3.119-2.119","rhx7eruteguet17",7,"176.csv","","null","resources/images/coin2.png","null","",NA,NA,NA,NA,""
"image-keyboard-response",371,676882,"0.0-3.120-0.120","rhx7eruteguet17",7,"176.csv","","4389.5","resources/trios/L1T2A3.jpg","39","restless",0.6,0.5,0.5,0.67767976266522,"false"
"image-keyboard-response",372,677294,"0.0-3.120-1.120","rhx7eruteguet17",7,"176.csv","","null","resources/maskTrios/BBA3.jpg","null","",NA,NA,NA,NA,""
"image-keyboard-response",373,678507,"0.0-3.120-2.120","rhx7eruteguet17",7,"176.csv","","null","resources/images/fishbone.png","null","",NA,NA,NA,NA,""
"image-keyboard-response",374,687295,"0.0-3.121-0.121","rhx7eruteguet17",7,"176.csv","","8785.700000047684","resources/trios/L4T1A3.jpg","37","restless",0.6,0.5,0.5,0.552638881332925,"true"
"image-keyboard-response",375,687706,"0.0-3.121-1.121","rhx7eruteguet17",7,"176.csv","","null","resources/maskTrios/L4BB.jpg","null","",NA,NA,NA,NA,""
"image-keyboard-response",376,688919,"0.0-3.121-2.121","rhx7eruteguet17",7,"176.csv","","null","resources/images/coin2.png","null","",NA,NA,NA,NA,""
"image-keyboard-response",377,692391,"0.0-3.122-0.122","rhx7eruteguet17",7,"176.csv","","3468.199999988079","resources/trios/L4T1A3.jpg","39","restless",0.6,0.5,0.5,0.288241515960302,"true"
"image-keyboard-response",378,692808,"0.0-3.122-1.122","rhx7eruteguet17",7,"176.csv","","null","resources/maskTrios/BBA3.jpg","null","",NA,NA,NA,NA,""
"image-keyboard-response",379,694018,"0.0-3.122-2.122","rhx7eruteguet17",7,"176.csv","","null","resources/images/coin2.png","null","",NA,NA,NA,NA,""
"image-keyboard-response",380,696384,"0.0-3.123-0.123","rhx7eruteguet17",7,"176.csv","","2363.100000023842","resources/trios/L4T2A2.jpg","37","restless",0.6,0.5,0.5,0.772421985249093,"false"
"image-keyboard-response",381,696796,"0.0-3.123-1.123","rhx7eruteguet17",7,"176.csv","","null","resources/maskTrios/L4BB.jpg","null","",NA,NA,NA,NA,""
"image-keyboard-response",382,698000,"0.0-3.123-2.123","rhx7eruteguet17",7,"176.csv","","null","resources/images/fishbone.png","null","",NA,NA,NA,NA,""
"image-keyboard-response",383,700719,"0.0-3.124-0.124","rhx7eruteguet17",7,"176.csv","","2716.899999976158","resources/trios/L4T2A2.jpg","38","restless",0.6,0.5,0.5,0.955972025102365,"false"
"image-keyboard-response",384,701136,"0.0-3.124-1.124","rhx7eruteguet17",7,"176.csv","","null","resources/maskTrios/BT2B.jpg","null","",NA,NA,NA,NA,""
"image-keyboard-response",385,702341,"0.0-3.124-2.124","rhx7eruteguet17",7,"176.csv","","null","resources/images/fishbone.png","null","",NA,NA,NA,NA,""
"image-keyboard-response",386,702631,"0.0-3.125-0.125","rhx7eruteguet17",7,"176.csv","","285.7999999523163","resources/trios/L1T2A2.jpg","39","restless",0.6,0.5,0.5,0.451910463514595,"true"
"image-keyboard-response",387,703038,"0.0-3.125-1.125","rhx7eruteguet17",7,"176.csv","","null","resources/maskTrios/BBA2.jpg","null","",NA,NA,NA,NA,""
"image-keyboard-response",388,704242,"0.0-3.125-2.125","rhx7eruteguet17",7,"176.csv","","null","resources/images/coin2.png","null","",NA,NA,NA,NA,""
"image-keyboard-response",389,706511,"0.0-3.126-0.126","rhx7eruteguet17",7,"176.csv","","2265.800000011921","resources/trios/L4T2A2.jpg","39","restless",0.7,0.5,0.4,0.885926268274266,"false"
"image-keyboard-response",390,706923,"0.0-3.126-1.126","rhx7eruteguet17",7,"176.csv","","null","resources/maskTrios/BBA2.jpg","null","",NA,NA,NA,NA,""
"image-keyboard-response",391,708134,"0.0-3.126-2.126","rhx7eruteguet17",7,"176.csv","","null","resources/images/fishbone.png","null","",NA,NA,NA,NA,""
"image-keyboard-response",392,709103,"0.0-3.127-0.127","rhx7eruteguet17",7,"176.csv","","967.1000000238419","resources/trios/L4T1A2.jpg","37","restless",0.8,0.5,0.4,0.953164456078705,"false"
"image-keyboard-response",393,709520,"0.0-3.127-1.127","rhx7eruteguet17",7,"176.csv","","null","resources/maskTrios/L4BB.jpg","null","",NA,NA,NA,NA,""
"image-keyboard-response",394,710733,"0.0-3.127-2.127","rhx7eruteguet17",7,"176.csv","","null","resources/images/fishbone.png","null","",NA,NA,NA,NA,""
"image-keyboard-response",395,711544,"0.0-3.128-0.128","rhx7eruteguet17",7,"176.csv","","806.9000000357628","resources/trios/L4T1A2.jpg","38","restless",0.8,0.5,0.4,0.298918520572992,"true"
"image-keyboard-response",396,711953,"0.0-3.128-1.128","rhx7eruteguet17",7,"176.csv","","null","resources/maskTrios/BT1B.jpg","null","",NA,NA,NA,NA,""
"image-keyboard-response",397,713161,"0.0-3.128-2.128","rhx7eruteguet17",7,"176.csv","","null","resources/images/coin2.png","null","",NA,NA,NA,NA,""
"image-keyboard-response",398,716615,"0.0-3.129-0.129","rhx7eruteguet17",7,"176.csv","","3451.699999988079","resources/trios/L1T1A3.jpg","39","restless",0.8,0.5,0.4,0.179903173692806,"true"
"image-keyboard-response",399,717034,"0.0-3.129-1.129","rhx7eruteguet17",7,"176.csv","","null","resources/maskTrios/BBA3.jpg","null","",NA,NA,NA,NA,""
"image-keyboard-response",400,718253,"0.0-3.129-2.129","rhx7eruteguet17",7,"176.csv","","null","resources/images/coin2.png","null","",NA,NA,NA,NA,""
"image-keyboard-response",401,720910,"0.0-3.130-0.130","rhx7eruteguet17",7,"176.csv","","2654.100000023842","resources/trios/L4T1A3.jpg","37","restless",0.8,0.5,0.3,0.544258056050634,"true"
"image-keyboard-response",402,721328,"0.0-3.130-1.130","rhx7eruteguet17",7,"176.csv","","null","resources/maskTrios/L4BB.jpg","null","",NA,NA,NA,NA,""
"image-keyboard-response",403,722533,"0.0-3.130-2.130","rhx7eruteguet17",7,"176.csv","","null","resources/images/coin2.png","null","",NA,NA,NA,NA,""
"image-keyboard-response",404,729916,"0.0-3.131-0.131","rhx7eruteguet17",7,"176.csv","","7380.5","resources/trios/L4T1A3.jpg","38","restless",0.8,0.4,0.3,0.815367169405044,"false"
"image-keyboard-response",405,730334,"0.0-3.131-1.131","rhx7eruteguet17",7,"176.csv","","null","resources/maskTrios/BT1B.jpg","null","",NA,NA,NA,NA,""
"image-keyboard-response",406,731545,"0.0-3.131-2.131","rhx7eruteguet17",7,"176.csv","","null","resources/images/fishbone.png","null","",NA,NA,NA,NA,""
"image-keyboard-response",407,732020,"0.0-3.132-0.132","rhx7eruteguet17",7,"176.csv","","472.60000002384186","resources/trios/L1T2A3.jpg","39","restless",0.8,0.4,0.3,0.551543148479009,"false"
"image-keyboard-response",408,732429,"0.0-3.132-1.132","rhx7eruteguet17",7,"176.csv","","null","resources/maskTrios/BBA3.jpg","null","",NA,NA,NA,NA,""
"image-keyboard-response",409,733647,"0.0-3.132-2.132","rhx7eruteguet17",7,"176.csv","","null","resources/images/fishbone.png","null","",NA,NA,NA,NA,""
"image-keyboard-response",410,735251,"0.0-3.133-0.133","rhx7eruteguet17",7,"176.csv","","1601","resources/trios/L1T1A3.jpg","37","restless",0.8,0.4,0.3,0.233796587715046,"true"
"image-keyboard-response",411,735664,"0.0-3.133-1.133","rhx7eruteguet17",7,"176.csv","","null","resources/maskTrios/L1BB.jpg","null","",NA,NA,NA,NA,""
"image-keyboard-response",412,736873,"0.0-3.133-2.133","rhx7eruteguet17",7,"176.csv","","null","resources/images/coin2.png","null","",NA,NA,NA,NA,""
"image-keyboard-response",413,743372,"0.0-3.134-0.134","rhx7eruteguet17",7,"176.csv","","6497.199999988079","resources/trios/L1T2A2.jpg","39","restless",0.8,0.4,0.3,0.710090831441536,"false"
"image-keyboard-response",414,743775,"0.0-3.134-1.134","rhx7eruteguet17",7,"176.csv","","null","resources/maskTrios/BBA2.jpg","null","",NA,NA,NA,NA,""
"image-keyboard-response",415,744989,"0.0-3.134-2.134","rhx7eruteguet17",7,"176.csv","","null","resources/images/fishbone.png","null","",NA,NA,NA,NA,""
"image-keyboard-response",416,746540,"0.0-3.135-0.135","rhx7eruteguet17",7,"176.csv","","1548.699999988079","resources/trios/L4T1A2.jpg","38","restless",0.8,0.4,0.3,0.653537151970556,"false"
"image-keyboard-response",417,746950,"0.0-3.135-1.135","rhx7eruteguet17",7,"176.csv","","null","resources/maskTrios/BT1B.jpg","null","",NA,NA,NA,NA,""
"image-keyboard-response",418,748155,"0.0-3.135-2.135","rhx7eruteguet17",7,"176.csv","","null","resources/images/fishbone.png","null","",NA,NA,NA,NA,""
"image-keyboard-response",419,748811,"0.0-3.136-0.136","rhx7eruteguet17",7,"176.csv","","653.1999999880791","resources/trios/L4T1A2.jpg","39","restless",0.8,0.4,0.3,0.773162556454103,"false"
"image-keyboard-response",420,749225,"0.0-3.136-1.136","rhx7eruteguet17",7,"176.csv","","null","resources/maskTrios/BBA2.jpg","null","",NA,NA,NA,NA,""
"image-keyboard-response",421,750431,"0.0-3.136-2.136","rhx7eruteguet17",7,"176.csv","","null","resources/images/fishbone.png","null","",NA,NA,NA,NA,""
"image-keyboard-response",422,750788,"0.0-3.137-0.137","rhx7eruteguet17",7,"176.csv","","354.4000000357628","resources/trios/L1T2A2.jpg","37","restless",0.8,0.4,0.4,0.152000161902015,"true"
"image-keyboard-response",423,751205,"0.0-3.137-1.137","rhx7eruteguet17",7,"176.csv","","null","resources/maskTrios/L1BB.jpg","null","",NA,NA,NA,NA,""
"image-keyboard-response",424,752421,"0.0-3.137-2.137","rhx7eruteguet17",7,"176.csv","","null","resources/images/coin2.png","null","",NA,NA,NA,NA,""
"image-keyboard-response",425,753437,"0.0-3.138-0.138","rhx7eruteguet17",7,"176.csv","","1013","resources/trios/L1T2A2.jpg","37","restless",0.8,0.4,0.4,0.711863120087761,"true"
"image-keyboard-response",426,753846,"0.0-3.138-1.138","rhx7eruteguet17",7,"176.csv","","null","resources/maskTrios/L1BB.jpg","null","",NA,NA,NA,NA,""
"image-keyboard-response",427,755052,"0.0-3.138-2.138","rhx7eruteguet17",7,"176.csv","","null","resources/images/coin2.png","null","",NA,NA,NA,NA,""
"image-keyboard-response",428,756379,"0.0-3.139-0.139","rhx7eruteguet17",7,"176.csv","","1325.5","resources/trios/L1T2A3.jpg","38","restless",0.8,0.4,0.4,0.0128030405475001,"true"
"image-keyboard-response",429,756791,"0.0-3.139-1.139","rhx7eruteguet17",7,"176.csv","","null","resources/maskTrios/BT2B.jpg","null","",NA,NA,NA,NA,""
"image-keyboard-response",430,757996,"0.0-3.139-2.139","rhx7eruteguet17",7,"176.csv","","null","resources/images/coin2.png","null","",NA,NA,NA,NA,""
"image-keyboard-response",431,758860,"0.0-3.140-0.140","rhx7eruteguet17",7,"176.csv","","860.2000000476837","resources/trios/L1T2A3.jpg","39","restless",0.9,0.4,0.4,0.889395701575705,"false"
"image-keyboard-response",432,759272,"0.0-3.140-1.140","rhx7eruteguet17",7,"176.csv","","null","resources/maskTrios/BBA3.jpg","null","",NA,NA,NA,NA,""
"image-keyboard-response",433,760489,"0.0-3.140-2.140","rhx7eruteguet17",7,"176.csv","","null","resources/images/fishbone.png","null","",NA,NA,NA,NA,""
"image-keyboard-response",434,760964,"0.0-3.141-0.141","rhx7eruteguet17",7,"176.csv","","473.19999998807907","resources/trios/L1T2A2.jpg","38","restless",0.9,0.4,0.4,0.51165631604516,"false"
"image-keyboard-response",435,761370,"0.0-3.141-1.141","rhx7eruteguet17",7,"176.csv","","null","resources/maskTrios/BT2B.jpg","null","",NA,NA,NA,NA,""
"image-keyboard-response",436,762588,"0.0-3.141-2.141","rhx7eruteguet17",7,"176.csv","","null","resources/images/fishbone.png","null","",NA,NA,NA,NA,""
"image-keyboard-response",437,762891,"0.0-3.142-0.142","rhx7eruteguet17",7,"176.csv","","301.69999998807907","resources/trios/L4T2A2.jpg","37","restless",0.9,0.4,0.4,0.572628818672191,"true"
"image-keyboard-response",438,763302,"0.0-3.142-1.142","rhx7eruteguet17",7,"176.csv","","null","resources/maskTrios/L4BB.jpg","null","",NA,NA,NA,NA,""
"image-keyboard-response",439,764517,"0.0-3.142-2.142","rhx7eruteguet17",7,"176.csv","","null","resources/images/coin2.png","null","",NA,NA,NA,NA,""
"image-keyboard-response",440,765132,"0.0-3.143-0.143","rhx7eruteguet17",7,"176.csv","","612.8999999761581","resources/trios/L4T2A3.jpg","37","restless",0.9,0.4,0.4,0.234859019066405,"true"
"image-keyboard-response",441,765537,"0.0-3.143-1.143","rhx7eruteguet17",7,"176.csv","","null","resources/maskTrios/L4BB.jpg","null","",NA,NA,NA,NA,""
"image-keyboard-response",442,766753,"0.0-3.143-2.143","rhx7eruteguet17",7,"176.csv","","null","resources/images/coin2.png","null","",NA,NA,NA,NA,""
"image-keyboard-response",443,768002,"0.0-3.144-0.144","rhx7eruteguet17",7,"176.csv","","1247.6000000238419","resources/trios/L1T1A2.jpg","38","restless",0.9,0.4,0.4,0.658409115146202,"false"
"image-keyboard-response",444,768411,"0.0-3.144-1.144","rhx7eruteguet17",7,"176.csv","","null","resources/maskTrios/BT1B.jpg","null","",NA,NA,NA,NA,""
"image-keyboard-response",445,769619,"0.0-3.144-2.144","rhx7eruteguet17",7,"176.csv","","null","resources/images/fishbone.png","null","",NA,NA,NA,NA,""
"image-keyboard-response",446,769907,"0.0-3.145-0.145","rhx7eruteguet17",7,"176.csv","","284.5999999642372","resources/trios/L1T1A2.jpg","37","restless",0.9,0.4,0.4,0.325539410695645,"true"
"image-keyboard-response",447,770311,"0.0-3.145-1.145","rhx7eruteguet17",7,"176.csv","","null","resources/maskTrios/L1BB.jpg","null","",NA,NA,NA,NA,""
"image-keyboard-response",448,771519,"0.0-3.145-2.145","rhx7eruteguet17",7,"176.csv","","null","resources/images/coin2.png","null","",NA,NA,NA,NA,""
"image-keyboard-response",449,771859,"0.0-3.146-0.146","rhx7eruteguet17",7,"176.csv","","338.30000001192093","resources/trios/L1T2A2.jpg","37","restless",0.8,0.4,0.4,0.206596524812102,"true"
"image-keyboard-response",450,772265,"0.0-3.146-1.146","rhx7eruteguet17",7,"176.csv","","null","resources/maskTrios/L1BB.jpg","null","",NA,NA,NA,NA,""
"image-keyboard-response",451,773475,"0.0-3.146-2.146","rhx7eruteguet17",7,"176.csv","","null","resources/images/coin2.png","null","",NA,NA,NA,NA,""
"image-keyboard-response",452,773722,"0.0-3.147-0.147","rhx7eruteguet17",7,"176.csv","","245.9000000357628","resources/trios/L1T2A3.jpg","37","restless",0.8,0.4,0.4,0.00994231616136587,"true"
"image-keyboard-response",453,774136,"0.0-3.147-1.147","rhx7eruteguet17",7,"176.csv","","null","resources/maskTrios/L1BB.jpg","null","",NA,NA,NA,NA,""
"image-keyboard-response",454,775340,"0.0-3.147-2.147","rhx7eruteguet17",7,"176.csv","","null","resources/images/coin2.png","null","",NA,NA,NA,NA,""
"image-keyboard-response",455,776027,"0.0-3.148-0.148","rhx7eruteguet17",7,"176.csv","","685.3000000119209","resources/trios/L1T1A3.jpg","37","restless",0.8,0.4,0.4,0.736900550642219,"true"
"image-keyboard-response",456,776432,"0.0-3.148-1.148","rhx7eruteguet17",7,"176.csv","","null","resources/maskTrios/L1BB.jpg","null","",NA,NA,NA,NA,""
"image-keyboard-response",457,777642,"0.0-3.148-2.148","rhx7eruteguet17",7,"176.csv","","null","resources/images/coin2.png","null","",NA,NA,NA,NA,""
"image-keyboard-response",458,779579,"0.0-3.149-0.149","rhx7eruteguet17",7,"176.csv","","1934.800000011921","resources/trios/L4T2A2.jpg","39","restless",0.8,0.4,0.4,0.279871863274568,"true"
"image-keyboard-response",459,779988,"0.0-3.149-1.149","rhx7eruteguet17",7,"176.csv","","null","resources/maskTrios/BBA2.jpg","null","",NA,NA,NA,NA,""
"image-keyboard-response",460,781205,"0.0-3.149-2.149","rhx7eruteguet17",7,"176.csv","","null","resources/images/coin2.png","null","",NA,NA,NA,NA,""
"image-keyboard-response",461,783307,"0.0-3.150-0.150","rhx7eruteguet17",7,"176.csv","","2099","resources/trios/L1T1A3.jpg","37","restless",0.8,0.4,0.4,0.608774609550782,"true"
"image-keyboard-response",462,783713,"0.0-3.150-1.150","rhx7eruteguet17",7,"176.csv","","null","resources/maskTrios/L1BB.jpg","null","",NA,NA,NA,NA,""
"image-keyboard-response",463,784916,"0.0-3.150-2.150","rhx7eruteguet17",7,"176.csv","","null","resources/images/coin2.png","null","",NA,NA,NA,NA,""
"image-keyboard-response",464,785924,"0.0-3.151-0.151","rhx7eruteguet17",7,"176.csv","","1004.1999999880791","resources/trios/L4T1A2.jpg","39","restless",0.8,0.4,0.4,0.926201769767612,"false"
"image-keyboard-response",465,786341,"0.0-3.151-1.151","rhx7eruteguet17",7,"176.csv","","null","resources/maskTrios/BBA2.jpg","null","",NA,NA,NA,NA,""
"image-keyboard-response",466,787543,"0.0-3.151-2.151","rhx7eruteguet17",7,"176.csv","","null","resources/images/fishbone.png","null","",NA,NA,NA,NA,""
"image-keyboard-response",467,788467,"0.0-3.152-0.152","rhx7eruteguet17",7,"176.csv","","922.1999999880791","resources/trios/L4T2A2.jpg","38","restless",0.8,0.4,0.4,0.756565280122176,"false"
"image-keyboard-response",468,788872,"0.0-3.152-1.152","rhx7eruteguet17",7,"176.csv","","null","resources/maskTrios/BT2B.jpg","null","",NA,NA,NA,NA,""
"image-keyboard-response",469,790085,"0.0-3.152-2.152","rhx7eruteguet17",7,"176.csv","","null","resources/images/fishbone.png","null","",NA,NA,NA,NA,""
"image-keyboard-response",470,791459,"0.0-3.153-0.153","rhx7eruteguet17",7,"176.csv","","1370.800000011921","resources/trios/L1T2A2.jpg","37","restless",0.8,0.4,0.4,0.797084235842295,"true"
"image-keyboard-response",471,791873,"0.0-3.153-1.153","rhx7eruteguet17",7,"176.csv","","null","resources/maskTrios/L1BB.jpg","null","",NA,NA,NA,NA,""
"image-keyboard-response",472,793087,"0.0-3.153-2.153","rhx7eruteguet17",7,"176.csv","","null","resources/images/coin2.png","null","",NA,NA,NA,NA,""
"image-keyboard-response",473,795187,"0.0-3.154-0.154","rhx7eruteguet17",7,"176.csv","","2098.399999976158","resources/trios/L1T2A2.jpg","37","restless",0.9,0.4,0.4,0.169248317459484,"true"
"image-keyboard-response",474,795591,"0.0-3.154-1.154","rhx7eruteguet17",7,"176.csv","","null","resources/maskTrios/L1BB.jpg","null","",NA,NA,NA,NA,""
"image-keyboard-response",475,796800,"0.0-3.154-2.154","rhx7eruteguet17",7,"176.csv","","null","resources/images/coin2.png","null","",NA,NA,NA,NA,""
"image-keyboard-response",476,799924,"0.0-3.155-0.155","rhx7eruteguet17",7,"176.csv","","3120.699999988079","resources/trios/L4T2A3.jpg","37","restless",0.8,0.4,0.4,0.58263817268194,"true"
"image-keyboard-response",477,800338,"0.0-3.155-1.155","rhx7eruteguet17",7,"176.csv","","null","resources/maskTrios/L4BB.jpg","null","",NA,NA,NA,NA,""
"image-keyboard-response",478,801543,"0.0-3.155-2.155","rhx7eruteguet17",7,"176.csv","","null","resources/images/coin2.png","null","",NA,NA,NA,NA,""
"image-keyboard-response",479,803492,"0.0-3.156-0.156","rhx7eruteguet17",7,"176.csv","","1945.5","resources/trios/L1T2A2.jpg","37","restless",0.8,0.4,0.4,0.16725856646207,"true"
"image-keyboard-response",480,803905,"0.0-3.156-1.156","rhx7eruteguet17",7,"176.csv","","null","resources/maskTrios/L1BB.jpg","null","",NA,NA,NA,NA,""
"image-keyboard-response",481,805116,"0.0-3.156-2.156","rhx7eruteguet17",7,"176.csv","","null","resources/images/coin2.png","null","",NA,NA,NA,NA,""
"image-keyboard-response",482,807620,"0.0-3.157-0.157","rhx7eruteguet17",7,"176.csv","","2502.600000023842","resources/trios/L4T2A2.jpg","37","restless",0.8,0.4,0.4,0.22069271930502,"true"
"image-keyboard-response",483,808034,"0.0-3.157-1.157","rhx7eruteguet17",7,"176.csv","","null","resources/maskTrios/L4BB.jpg","null","",NA,NA,NA,NA,""
"image-keyboard-response",484,809239,"0.0-3.157-2.157","rhx7eruteguet17",7,"176.csv","","null","resources/images/coin2.png","null","",NA,NA,NA,NA,""
"image-keyboard-response",485,812741,"0.0-3.158-0.158","rhx7eruteguet17",7,"176.csv","","3500.699999988079","resources/trios/L4T1A3.jpg","38","restless",0.7,0.4,0.4,0.230046135023411,"true"
"image-keyboard-response",486,813156,"0.0-3.158-1.158","rhx7eruteguet17",7,"176.csv","","null","resources/maskTrios/BT1B.jpg","null","",NA,NA,NA,NA,""
"image-keyboard-response",487,814359,"0.0-3.158-2.158","rhx7eruteguet17",7,"176.csv","","null","resources/images/coin2.png","null","",NA,NA,NA,NA,""
"image-keyboard-response",488,816212,"0.0-3.159-0.159","rhx7eruteguet17",7,"176.csv","","1852","resources/trios/L1T2A3.jpg","37","restless",0.7,0.4,0.4,0.748310509067781,"false"
"image-keyboard-response",489,816627,"0.0-3.159-1.159","rhx7eruteguet17",7,"176.csv","","null","resources/maskTrios/L1BB.jpg","null","",NA,NA,NA,NA,""
"image-keyboard-response",490,817837,"0.0-3.159-2.159","rhx7eruteguet17",7,"176.csv","","null","resources/images/fishbone.png","null","",NA,NA,NA,NA,""
"image-keyboard-response",491,821891,"0.0-3.160-0.160","rhx7eruteguet17",7,"176.csv","","4051.5","resources/trios/L1T1A3.jpg","37","restless",0.8,0.4,0.4,0.083502764260543,"true"
"image-keyboard-response",492,822302,"0.0-3.160-1.160","rhx7eruteguet17",7,"176.csv","","null","resources/maskTrios/L1BB.jpg","null","",NA,NA,NA,NA,""
"image-keyboard-response",493,823514,"0.0-3.160-2.160","rhx7eruteguet17",7,"176.csv","","null","resources/images/coin2.png","null","",NA,NA,NA,NA,""
"image-keyboard-response",494,827732,"0.0-3.161-0.161","rhx7eruteguet17",7,"176.csv","","4215.800000011921","resources/trios/L4T1A2.jpg","38","restless",0.8,0.4,0.4,0.403349710865571,"false"
"image-keyboard-response",495,828147,"0.0-3.161-1.161","rhx7eruteguet17",7,"176.csv","","null","resources/maskTrios/BT1B.jpg","null","",NA,NA,NA,NA,""
"image-keyboard-response",496,829351,"0.0-3.161-2.161","rhx7eruteguet17",7,"176.csv","","null","resources/images/fishbone.png","null","",NA,NA,NA,NA,""
"image-keyboard-response",497,830716,"0.0-3.162-0.162","rhx7eruteguet17",7,"176.csv","","1362.199999988079","resources/trios/L1T2A3.jpg","37","restless",0.9,0.4,0.4,0.485581881900513,"true"
"image-keyboard-response",498,831133,"0.0-3.162-1.162","rhx7eruteguet17",7,"176.csv","","null","resources/maskTrios/L1BB.jpg","null","",NA,NA,NA,NA,""
"image-keyboard-response",499,832346,"0.0-3.162-2.162","rhx7eruteguet17",7,"176.csv","","null","resources/images/coin2.png","null","",NA,NA,NA,NA,""
"image-keyboard-response",500,833540,"0.0-3.163-0.163","rhx7eruteguet17",7,"176.csv","","1192","resources/trios/L1T1A2.jpg","37","restless",0.9,0.5,0.3,0.66078814070254,"true"
"image-keyboard-response",501,833955,"0.0-3.163-1.163","rhx7eruteguet17",7,"176.csv","","null","resources/maskTrios/L1BB.jpg","null","",NA,NA,NA,NA,""
"image-keyboard-response",502,835166,"0.0-3.163-2.163","rhx7eruteguet17",7,"176.csv","","null","resources/images/coin2.png","null","",NA,NA,NA,NA,""
"image-keyboard-response",503,836243,"0.0-3.164-0.164","rhx7eruteguet17",7,"176.csv","","1074.2999999523163","resources/trios/L1T1A3.jpg","37","restless",0.9,0.5,0.3,0.111737951705549,"true"
"image-keyboard-response",504,836649,"0.0-3.164-1.164","rhx7eruteguet17",7,"176.csv","","null","resources/maskTrios/L1BB.jpg","null","",NA,NA,NA,NA,""
"image-keyboard-response",505,837856,"0.0-3.164-2.164","rhx7eruteguet17",7,"176.csv","","null","resources/images/coin2.png","null","",NA,NA,NA,NA,""
"image-keyboard-response",506,838420,"0.0-3.165-0.165","rhx7eruteguet17",7,"176.csv","","562.1999999880791","resources/trios/L1T1A2.jpg","37","restless",0.9,0.5,0.3,0.77791889824435,"true"
"image-keyboard-response",507,838831,"0.0-3.165-1.165","rhx7eruteguet17",7,"176.csv","","null","resources/maskTrios/L1BB.jpg","null","",NA,NA,NA,NA,""
"image-keyboard-response",508,840033,"0.0-3.165-2.165","rhx7eruteguet17",7,"176.csv","","null","resources/images/coin2.png","null","",NA,NA,NA,NA,""
"image-keyboard-response",509,840795,"0.0-3.166-0.166","rhx7eruteguet17",7,"176.csv","","758.8000000119209","resources/trios/L4T2A2.jpg","37","restless",0.8,0.5,0.3,0.969491194264586,"false"
"image-keyboard-response",510,841208,"0.0-3.166-1.166","rhx7eruteguet17",7,"176.csv","","null","resources/maskTrios/L4BB.jpg","null","",NA,NA,NA,NA,""
"image-keyboard-response",511,842427,"0.0-3.166-2.166","rhx7eruteguet17",7,"176.csv","","null","resources/images/fishbone.png","null","",NA,NA,NA,NA,""
"image-keyboard-response",512,845140,"0.0-3.167-0.167","rhx7eruteguet17",7,"176.csv","","2708.800000011921","resources/trios/L4T1A3.jpg","39","restless",0.8,0.5,0.3,0.0440063759968408,"true"
"image-keyboard-response",513,845554,"0.0-3.167-1.167","rhx7eruteguet17",7,"176.csv","","null","resources/maskTrios/BBA3.jpg","null","",NA,NA,NA,NA,""
"image-keyboard-response",514,846768,"0.0-3.167-2.167","rhx7eruteguet17",7,"176.csv","","null","resources/images/coin2.png","null","",NA,NA,NA,NA,""
"image-keyboard-response",515,847500,"0.0-3.168-0.168","rhx7eruteguet17",7,"176.csv","","729.8999999761581","resources/trios/L4T1A3.jpg","39","restless",0.7,0.5,0.2,0.516790421444577,"false"
"image-keyboard-response",516,847910,"0.0-3.168-1.168","rhx7eruteguet17",7,"176.csv","","null","resources/maskTrios/BBA3.jpg","null","",NA,NA,NA,NA,""
"image-keyboard-response",517,849123,"0.0-3.168-2.168","rhx7eruteguet17",7,"176.csv","","null","resources/images/fishbone.png","null","",NA,NA,NA,NA,""
"image-keyboard-response",518,849956,"0.0-3.169-0.169","rhx7eruteguet17",7,"176.csv","","830","resources/trios/L1T1A3.jpg","38","restless",0.7,0.5,0.3,0.487450560890706,"true"
"image-keyboard-response",519,850359,"0.0-3.169-1.169","rhx7eruteguet17",7,"176.csv","","null","resources/maskTrios/BT1B.jpg","null","",NA,NA,NA,NA,""
"image-keyboard-response",520,851562,"0.0-3.169-2.169","rhx7eruteguet17",7,"176.csv","","null","resources/images/coin2.png","null","",NA,NA,NA,NA,""
"image-keyboard-response",521,852252,"0.0-3.170-0.170","rhx7eruteguet17",7,"176.csv","","687.0999999642372","resources/trios/L1T1A2.jpg","38","restless",0.7,0.5,0.3,0.694008318975265,"false"
"image-keyboard-response",522,852660,"0.0-3.170-1.170","rhx7eruteguet17",7,"176.csv","","null","resources/maskTrios/BT1B.jpg","null","",NA,NA,NA,NA,""
"image-keyboard-response",523,853864,"0.0-3.170-2.170","rhx7eruteguet17",7,"176.csv","","null","resources/images/fishbone.png","null","",NA,NA,NA,NA,""
"image-keyboard-response",524,854180,"0.0-3.171-0.171","rhx7eruteguet17",7,"176.csv","","312.60000002384186","resources/trios/L4T1A3.jpg","37","restless",0.7,0.5,0.3,0.430253638723732,"true"
"image-keyboard-response",525,854598,"0.0-3.171-1.171","rhx7eruteguet17",7,"176.csv","","null","resources/maskTrios/L4BB.jpg","null","",NA,NA,NA,NA,""
"image-keyboard-response",526,855814,"0.0-3.171-2.171","rhx7eruteguet17",7,"176.csv","","null","resources/images/coin2.png","null","",NA,NA,NA,NA,""
"image-keyboard-response",527,856588,"0.0-3.172-0.172","rhx7eruteguet17",7,"176.csv","","771.6999999880791","resources/trios/L4T1A2.jpg","37","restless",0.7,0.5,0.3,0.216101257515022,"true"
"image-keyboard-response",528,856992,"0.0-3.172-1.172","rhx7eruteguet17",7,"176.csv","","null","resources/maskTrios/L4BB.jpg","null","",NA,NA,NA,NA,""
"image-keyboard-response",529,858205,"0.0-3.172-2.172","rhx7eruteguet17",7,"176.csv","","null","resources/images/coin2.png","null","",NA,NA,NA,NA,""
"image-keyboard-response",530,858788,"0.0-3.173-0.173","rhx7eruteguet17",7,"176.csv","","578.8000000119209","resources/trios/L4T1A3.jpg","37","restless",0.7,0.5,0.3,0.588957000106825,"true"
"image-keyboard-response",531,859196,"0.0-3.173-1.173","rhx7eruteguet17",7,"176.csv","","null","resources/maskTrios/L4BB.jpg","null","",NA,NA,NA,NA,""
"image-keyboard-response",532,860406,"0.0-3.173-2.173","rhx7eruteguet17",7,"176.csv","","null","resources/images/coin2.png","null","",NA,NA,NA,NA,""
"image-keyboard-response",533,864508,"0.0-3.174-0.174","rhx7eruteguet17",7,"176.csv","","4100.100000023842","resources/trios/L1T2A3.jpg","38","restless",0.7,0.5,0.3,0.290443633013174,"true"
"image-keyboard-response",534,864918,"0.0-3.174-1.174","rhx7eruteguet17",7,"176.csv","","null","resources/maskTrios/BT2B.jpg","null","",NA,NA,NA,NA,""
"image-keyboard-response",535,866128,"0.0-3.174-2.174","rhx7eruteguet17",7,"176.csv","","null","resources/images/coin2.png","null","",NA,NA,NA,NA,""
"image-keyboard-response",536,867636,"0.0-3.175-0.175","rhx7eruteguet17",7,"176.csv","","1504.699999988079","resources/trios/L4T1A3.jpg","39","restless",0.7,0.6,0.3,0.0363246931272661,"true"
"image-keyboard-response",537,868047,"0.0-3.175-1.175","rhx7eruteguet17",7,"176.csv","","null","resources/maskTrios/BBA3.jpg","null","",NA,NA,NA,NA,""
"image-keyboard-response",538,869262,"0.0-3.175-2.175","rhx7eruteguet17",7,"176.csv","","null","resources/images/coin2.png","null","",NA,NA,NA,NA,""
"image-keyboard-response",539,870243,"0.0-3.176-0.176","rhx7eruteguet17",7,"176.csv","","978.6999999880791","resources/trios/L4T1A2.jpg","39","restless",0.7,0.5,0.3,0.816237470218265,"false"
"image-keyboard-response",540,870655,"0.0-3.176-1.176","rhx7eruteguet17",7,"176.csv","","null","resources/maskTrios/BBA2.jpg","null","",NA,NA,NA,NA,""
"image-keyboard-response",541,871870,"0.0-3.176-2.176","rhx7eruteguet17",7,"176.csv","","null","resources/images/fishbone.png","null","",NA,NA,NA,NA,""
"image-keyboard-response",542,873092,"0.0-3.177-0.177","rhx7eruteguet17",7,"176.csv","","1219.2999999523163","resources/trios/L1T2A3.jpg","37","restless",0.7,0.5,0.3,0.586359897089245,"true"
"image-keyboard-response",543,873498,"0.0-3.177-1.177","rhx7eruteguet17",7,"176.csv","","null","resources/maskTrios/L1BB.jpg","null","",NA,NA,NA,NA,""
"image-keyboard-response",544,874709,"0.0-3.177-2.177","rhx7eruteguet17",7,"176.csv","","null","resources/images/coin2.png","null","",NA,NA,NA,NA,""
"image-keyboard-response",545,875443,"0.0-3.178-0.178","rhx7eruteguet17",7,"176.csv","","731.7000000476837","resources/trios/L4T1A2.jpg","37","restless",0.7,0.5,0.3,0.120914278745373,"true"
"image-keyboard-response",546,875854,"0.0-3.178-1.178","rhx7eruteguet17",7,"176.csv","","null","resources/maskTrios/L4BB.jpg","null","",NA,NA,NA,NA,""
"image-keyboard-response",547,877057,"0.0-3.178-2.178","rhx7eruteguet17",7,"176.csv","","null","resources/images/coin2.png","null","",NA,NA,NA,NA,""
"image-keyboard-response",548,877722,"0.0-3.179-0.179","rhx7eruteguet17",7,"176.csv","","663.1000000238419","resources/trios/L4T2A3.jpg","37","restless",0.7,0.5,0.3,0.706121584314629,"false"
"image-keyboard-response",549,878127,"0.0-3.179-1.179","rhx7eruteguet17",7,"176.csv","","null","resources/maskTrios/L4BB.jpg","null","",NA,NA,NA,NA,""
"image-keyboard-response",550,879344,"0.0-3.179-2.179","rhx7eruteguet17",7,"176.csv","","null","resources/images/fishbone.png","null","",NA,NA,NA,NA,""
"image-keyboard-response",551,880132,"0.0-3.180-0.180","rhx7eruteguet17",7,"176.csv","","784.3000000119209","resources/trios/L1T1A2.jpg","38","restless",0.7,0.5,0.3,0.116780860549944,"true"
"image-keyboard-response",552,880538,"0.0-3.180-1.180","rhx7eruteguet17",7,"176.csv","","null","resources/maskTrios/BT1B.jpg","null","",NA,NA,NA,NA,""
"image-keyboard-response",553,881751,"0.0-3.180-2.180","rhx7eruteguet17",7,"176.csv","","null","resources/images/coin2.png","null","",NA,NA,NA,NA,""
"image-keyboard-response",554,882483,"0.0-3.181-0.181","rhx7eruteguet17",7,"176.csv","","730.7999999523163","resources/trios/L1T2A3.jpg","38","restless",0.7,0.5,0.3,0.228501348315437,"true"
"image-keyboard-response",555,882893,"0.0-3.181-1.181","rhx7eruteguet17",7,"176.csv","","null","resources/maskTrios/BT2B.jpg","null","",NA,NA,NA,NA,""
"image-keyboard-response",556,884104,"0.0-3.181-2.181","rhx7eruteguet17",7,"176.csv","","null","resources/images/coin2.png","null","",NA,NA,NA,NA,""
"image-keyboard-response",557,884964,"0.0-3.182-0.182","rhx7eruteguet17",7,"176.csv","","856.7999999523163","resources/trios/L4T1A2.jpg","38","restless",0.7,0.4,0.3,0.474010670160906,"false"
"image-keyboard-response",558,885380,"0.0-3.182-1.182","rhx7eruteguet17",7,"176.csv","","null","resources/maskTrios/BT1B.jpg","null","",NA,NA,NA,NA,""
"image-keyboard-response",559,886597,"0.0-3.182-2.182","rhx7eruteguet17",7,"176.csv","","null","resources/images/fishbone.png","null","",NA,NA,NA,NA,""
"image-keyboard-response",560,886876,"0.0-3.183-0.183","rhx7eruteguet17",7,"176.csv","","277.0999999642372","resources/trios/L1T1A2.jpg","39","restless",0.6,0.4,0.3,0.0982587356920004,"true"
"image-keyboard-response",561,887294,"0.0-3.183-1.183","rhx7eruteguet17",7,"176.csv","","null","resources/maskTrios/BBA2.jpg","null","",NA,NA,NA,NA,""
"image-keyboard-response",562,888500,"0.0-3.183-2.183","rhx7eruteguet17",7,"176.csv","","null","resources/images/coin2.png","null","",NA,NA,NA,NA,""
"image-keyboard-response",563,889267,"0.0-3.184-0.184","rhx7eruteguet17",7,"176.csv","","764.5","resources/trios/L1T1A2.jpg","39","restless",0.6,0.4,0.3,0.335373903176859,"false"
"image-keyboard-response",564,889675,"0.0-3.184-1.184","rhx7eruteguet17",7,"176.csv","","null","resources/maskTrios/BBA2.jpg","null","",NA,NA,NA,NA,""
"image-keyboard-response",565,890891,"0.0-3.184-2.184","rhx7eruteguet17",7,"176.csv","","null","resources/images/fishbone.png","null","",NA,NA,NA,NA,""
"image-keyboard-response",566,891219,"0.0-3.185-0.185","rhx7eruteguet17",7,"176.csv","","325.5","resources/trios/L4T2A3.jpg","37","restless",0.6,0.4,0.4,0.726561001664195,"false"
"image-keyboard-response",567,891626,"0.0-3.185-1.185","rhx7eruteguet17",7,"176.csv","","null","resources/maskTrios/L4BB.jpg","null","",NA,NA,NA,NA,""
"image-keyboard-response",568,892837,"0.0-3.185-2.185","rhx7eruteguet17",7,"176.csv","","null","resources/images/fishbone.png","null","",NA,NA,NA,NA,""
"image-keyboard-response",569,893244,"0.0-3.186-0.186","rhx7eruteguet17",7,"176.csv","","404.10000002384186","resources/trios/L1T2A3.jpg","38","restless",0.7,0.4,0.4,0.392797562920727,"true"
"image-keyboard-response",570,893655,"0.0-3.186-1.186","rhx7eruteguet17",7,"176.csv","","null","resources/maskTrios/BT2B.jpg","null","",NA,NA,NA,NA,""
"image-keyboard-response",571,894865,"0.0-3.186-2.186","rhx7eruteguet17",7,"176.csv","","null","resources/images/coin2.png","null","",NA,NA,NA,NA,""
"image-keyboard-response",572,895492,"0.0-3.187-0.187","rhx7eruteguet17",7,"176.csv","","624.3000000119209","resources/trios/L4T2A2.jpg","39","restless",0.7,0.4,0.4,0.893836039453159,"false"
"image-keyboard-response",573,895894,"0.0-3.187-1.187","rhx7eruteguet17",7,"176.csv","","null","resources/maskTrios/BBA2.jpg","null","",NA,NA,NA,NA,""
"image-keyboard-response",574,897097,"0.0-3.187-2.187","rhx7eruteguet17",7,"176.csv","","null","resources/images/fishbone.png","null","",NA,NA,NA,NA,""
"image-keyboard-response",575,902604,"0.0-3.188-0.188","rhx7eruteguet17",7,"176.csv","","5504.5","resources/trios/L1T2A3.jpg","37","restless",0.7,0.4,0.4,0.00890897505078114,"true"
"image-keyboard-response",576,903013,"0.0-3.188-1.188","rhx7eruteguet17",7,"176.csv","","null","resources/maskTrios/L1BB.jpg","null","",NA,NA,NA,NA,""
"image-keyboard-response",577,904217,"0.0-3.188-2.188","rhx7eruteguet17",7,"176.csv","","null","resources/images/coin2.png","null","",NA,NA,NA,NA,""
"image-keyboard-response",578,909964,"0.0-3.189-0.189","rhx7eruteguet17",7,"176.csv","","5744.400000035763","resources/trios/L4T1A3.jpg","37","restless",0.7,0.3,0.4,0.0960955395453624,"true"
"image-keyboard-response",579,910369,"0.0-3.189-1.189","rhx7eruteguet17",7,"176.csv","","null","resources/maskTrios/L4BB.jpg","null","",NA,NA,NA,NA,""
"image-keyboard-response",580,911586,"0.0-3.189-2.189","rhx7eruteguet17",7,"176.csv","","null","resources/images/coin2.png","null","",NA,NA,NA,NA,""
"image-keyboard-response",581,917525,"0.0-3.190-0.190","rhx7eruteguet17",7,"176.csv","","5936.100000023842","resources/trios/L4T2A3.jpg","37","restless",0.7,0.3,0.3,0.847741170088351,"false"
"image-keyboard-response",582,917937,"0.0-3.190-1.190","rhx7eruteguet17",7,"176.csv","","null","resources/maskTrios/L4BB.jpg","null","",NA,NA,NA,NA,""
"image-keyboard-response",583,919145,"0.0-3.190-2.190","rhx7eruteguet17",7,"176.csv","","null","resources/images/fishbone.png","null","",NA,NA,NA,NA,""
"image-keyboard-response",584,921692,"0.0-3.191-0.191","rhx7eruteguet17",7,"176.csv","","2544.099999964237","resources/trios/L4T2A3.jpg","39","restless",0.7,0.3,0.3,0.434248583672887,"false"
"image-keyboard-response",585,922100,"0.0-3.191-1.191","rhx7eruteguet17",7,"176.csv","","null","resources/maskTrios/BBA3.jpg","null","",NA,NA,NA,NA,""
"image-keyboard-response",586,923320,"0.0-3.191-2.191","rhx7eruteguet17",7,"176.csv","","null","resources/images/fishbone.png","null","",NA,NA,NA,NA,""
"image-keyboard-response",587,924580,"0.0-3.192-0.192","rhx7eruteguet17",7,"176.csv","","1258","resources/trios/L1T1A3.jpg","38","restless",0.7,0.2,0.3,0.201642043057204,"false"
"image-keyboard-response",588,924989,"0.0-3.192-1.192","rhx7eruteguet17",7,"176.csv","","null","resources/maskTrios/BT1B.jpg","null","",NA,NA,NA,NA,""
"image-keyboard-response",589,926203,"0.0-3.192-2.192","rhx7eruteguet17",7,"176.csv","","null","resources/images/fishbone.png","null","",NA,NA,NA,NA,""
"image-keyboard-response",590,927292,"0.0-3.193-0.193","rhx7eruteguet17",7,"176.csv","","1086.199999988079","resources/trios/L1T1A3.jpg","37","restless",0.6,0.2,0.3,0.867390116081561,"false"
"image-keyboard-response",591,927698,"0.0-3.193-1.193","rhx7eruteguet17",7,"176.csv","","null","resources/maskTrios/L1BB.jpg","null","",NA,NA,NA,NA,""
"image-keyboard-response",592,928917,"0.0-3.193-2.193","rhx7eruteguet17",7,"176.csv","","null","resources/images/fishbone.png","null","",NA,NA,NA,NA,""
"image-keyboard-response",593,929236,"0.0-3.194-0.194","rhx7eruteguet17",7,"176.csv","","315.7999999523163","resources/trios/L4T1A2.jpg","39","restless",0.6,0.2,0.3,0.077807923211902,"true"
"image-keyboard-response",594,929640,"0.0-3.194-1.194","rhx7eruteguet17",7,"176.csv","","null","resources/maskTrios/BBA2.jpg","null","",NA,NA,NA,NA,""
"image-keyboard-response",595,930854,"0.0-3.194-2.194","rhx7eruteguet17",7,"176.csv","","null","resources/images/coin2.png","null","",NA,NA,NA,NA,""
"image-keyboard-response",596,931132,"0.0-3.195-0.195","rhx7eruteguet17",7,"176.csv","","275.30000001192093","resources/trios/L4T1A2.jpg","39","restless",0.6,0.2,0.3,0.455697239526161,"false"
"image-keyboard-response",597,931549,"0.0-3.195-1.195","rhx7eruteguet17",7,"176.csv","","null","resources/maskTrios/BBA2.jpg","null","",NA,NA,NA,NA,""
"image-keyboard-response",598,932751,"0.0-3.195-2.195","rhx7eruteguet17",7,"176.csv","","null","resources/images/fishbone.png","null","",NA,NA,NA,NA,""
"image-keyboard-response",599,933371,"0.0-3.196-0.196","rhx7eruteguet17",7,"176.csv","","616.5","resources/trios/L4T1A2.jpg","37","restless",0.6,0.2,0.3,0.0458501088890748,"true"
"image-keyboard-response",600,933779,"0.0-3.196-1.196","rhx7eruteguet17",7,"176.csv","","null","resources/maskTrios/L4BB.jpg","null","",NA,NA,NA,NA,""
"image-keyboard-response",601,934987,"0.0-3.196-2.196","rhx7eruteguet17",7,"176.csv","","null","resources/images/coin2.png","null","",NA,NA,NA,NA,""
"image-keyboard-response",602,938083,"0.0-3.197-0.197","rhx7eruteguet17",7,"176.csv","","3094.599999964237","resources/trios/L4T2A3.jpg","37","restless",0.6,0.2,0.3,0.944874102286958,"false"
"image-keyboard-response",603,938494,"0.0-3.197-1.197","rhx7eruteguet17",7,"176.csv","","null","resources/maskTrios/L4BB.jpg","null","",NA,NA,NA,NA,""
"image-keyboard-response",604,939709,"0.0-3.197-2.197","rhx7eruteguet17",7,"176.csv","","null","resources/images/fishbone.png","null","",NA,NA,NA,NA,""
"image-keyboard-response",605,940723,"0.0-3.198-0.198","rhx7eruteguet17",7,"176.csv","","1012.3000000119209","resources/trios/L1T2A2.jpg","37","restless",0.6,0.3,0.3,0.786344059510881,"false"
"image-keyboard-response",606,941137,"0.0-3.198-1.198","rhx7eruteguet17",7,"176.csv","","null","resources/maskTrios/L1BB.jpg","null","",NA,NA,NA,NA,""
"image-keyboard-response",607,942350,"0.0-3.198-2.198","rhx7eruteguet17",7,"176.csv","","null","resources/images/fishbone.png","null","",NA,NA,NA,NA,""
"image-keyboard-response",608,942732,"0.0-3.199-0.199","rhx7eruteguet17",7,"176.csv","","378.9000000357628","resources/trios/L1T2A2.jpg","38","restless",0.6,0.3,0.3,0.703358575599232,"false"
"image-keyboard-response",609,943147,"0.0-3.199-1.199","rhx7eruteguet17",7,"176.csv","","null","resources/maskTrios/BT2B.jpg","null","",NA,NA,NA,NA,""
"image-keyboard-response",610,944360,"0.0-3.199-2.199","rhx7eruteguet17",7,"176.csv","","null","resources/images/fishbone.png","null","",NA,NA,NA,NA,""
"image-keyboard-response",611,944676,"0.0-3.200-0.200","rhx7eruteguet17",7,"176.csv","","313.10000002384186","resources/trios/L4T1A2.jpg","39","restless",0.6,0.3,0.3,0.27953196591967,"true"
"image-keyboard-response",612,945085,"0.0-3.200-1.200","rhx7eruteguet17",7,"176.csv","","null","resources/maskTrios/BBA2.jpg","null","",NA,NA,NA,NA,""
"image-keyboard-response",613,946298,"0.0-3.200-2.200","rhx7eruteguet17",7,"176.csv","","null","resources/images/coin2.png","null","",NA,NA,NA,NA,""
