"trial_type","trial_index","time_elapsed","internal_node_id","subject","participantCode","walkNumber","success","rt","stimulus","key_press","test_part","leftProb","midProb","rightProb","generatedNum","correct"
"pavlovia",0,1033,"0.0-0.0","8cduqzasr7gj3lz",206,"55.csv","","","","","",NA,NA,NA,NA,""
"fullscreen",1,5317,"0.0-1.0","8cduqzasr7gj3lz",206,"55.csv","true","","","","",NA,NA,NA,NA,""
"html-keyboard-response",2,47813,"0.0-2.0-0.0","8cduqzasr7gj3lz",206,"55.csv","","42495","<p><font size='6'>Arrrgh!</p></font><p>Can you be the best pirate? Try to find lots of gold! But beware, some islands have more gold than others, and over time, the island with the most gold may change. Can YOU figure it out? </p><font size='6'>GOOD LUCK, CAPTAIN!!!</font><p>Press any key to begin</p>","32","",NA,NA,NA,NA,""
"image-keyboard-response",3,50817,"0.0-2.0-1.0","8cduqzasr7gj3lz",206,"55.csv","","null","resources/image_sets/111.png","null","",NA,NA,NA,NA,""
"image-keyboard-response",4,55165,"0.0-2.0-2.0","8cduqzasr7gj3lz",206,"55.csv","","4346.599999904633","resources/image_sets/left_highlight.png","37","",NA,NA,NA,NA,""
"image-keyboard-response",5,57764,"0.0-2.0-3.0","8cduqzasr7gj3lz",206,"55.csv","","2595.7000002861023","resources/image_sets/mid_highlight.png","38","",NA,NA,NA,NA,""
"image-keyboard-response",6,65282,"0.0-2.0-4.0","8cduqzasr7gj3lz",206,"55.csv","","7515.900000095367","resources/image_sets/right_highlight.png","39","",NA,NA,NA,NA,""
"image-keyboard-response",7,69177,"0.0-2.0-5.0","8cduqzasr7gj3lz",206,"55.csv","","3893.300000190735","resources/image_sets/111.png","13","",NA,NA,NA,NA,""
"image-keyboard-response",8,72608,"0.0-2.0-6.0","8cduqzasr7gj3lz",206,"55.csv","","3429","resources/images/coin2.png","13","",NA,NA,NA,NA,""
"image-keyboard-response",9,74910,"0.0-2.0-7.0","8cduqzasr7gj3lz",206,"55.csv","","2300.5999999046326","resources/images/fishbone.png","13","",NA,NA,NA,NA,""
"html-keyboard-response",10,85632,"0.0-2.0-8.0","8cduqzasr7gj3lz",206,"55.csv","","10720.300000190735","<p>Your first journey will be a long one, but you will get a well deserved break at the end</p><p>After the break you will have four more journeys, but each will be much shorter than the first, and you will have breaks in between each</p><p>Press Enter to begin</p>","13","",NA,NA,NA,NA,""
"image-keyboard-response",11,86793,"0.0-3.0-0.0","8cduqzasr7gj3lz",206,"55.csv","","1158.5","resources/trios/L2T1A1.jpg","39","restless",0.3,0.9,0.7,0.703099610931228,"false"
"image-keyboard-response",12,87204,"0.0-3.0-1.0","8cduqzasr7gj3lz",206,"55.csv","","null","resources/maskTrios/BBA1.jpg","null","",NA,NA,NA,NA,""
"image-keyboard-response",13,88411,"0.0-3.0-2.0","8cduqzasr7gj3lz",206,"55.csv","","null","resources/images/fishbone.png","null","",NA,NA,NA,NA,""
"image-keyboard-response",14,89751,"0.0-3.1-0.1","8cduqzasr7gj3lz",206,"55.csv","","1337.3000001907349","resources/trios/L4T1A1.jpg","37","restless",0.3,0.9,0.7,0.976471205000964,"false"
"image-keyboard-response",15,90159,"0.0-3.1-1.1","8cduqzasr7gj3lz",206,"55.csv","","null","resources/maskTrios/L4BB.jpg","null","",NA,NA,NA,NA,""
"image-keyboard-response",16,91361,"0.0-3.1-2.1","8cduqzasr7gj3lz",206,"55.csv","","null","resources/images/fishbone.png","null","",NA,NA,NA,NA,""
"image-keyboard-response",17,96686,"0.0-3.2-0.2","8cduqzasr7gj3lz",206,"55.csv","","5322.200000286102","resources/trios/L2T1A1.jpg","38","restless",0.3,0.9,0.7,0.912598367939221,"false"
"image-keyboard-response",18,97093,"0.0-3.2-1.2","8cduqzasr7gj3lz",206,"55.csv","","null","resources/maskTrios/BT1B.jpg","null","",NA,NA,NA,NA,""
"image-keyboard-response",19,98298,"0.0-3.2-2.2","8cduqzasr7gj3lz",206,"55.csv","","null","resources/images/fishbone.png","null","",NA,NA,NA,NA,""
"image-keyboard-response",20,99018,"0.0-3.3-0.3","8cduqzasr7gj3lz",206,"55.csv","","718.7000002861023","resources/trios/L4T1A1.jpg","37","restless",0.3,0.9,0.7,0.747227339480663,"false"
"image-keyboard-response",21,99426,"0.0-3.3-1.3","8cduqzasr7gj3lz",206,"55.csv","","null","resources/maskTrios/L4BB.jpg","null","",NA,NA,NA,NA,""
"image-keyboard-response",22,100631,"0.0-3.3-2.3","8cduqzasr7gj3lz",206,"55.csv","","null","resources/images/fishbone.png","null","",NA,NA,NA,NA,""
"image-keyboard-response",23,100965,"0.0-3.4-0.4","8cduqzasr7gj3lz",206,"55.csv","","332.5","resources/trios/L4T1A1.jpg","37","restless",0.3,0.9,0.7,0.366553015236873,"false"
"image-keyboard-response",24,101373,"0.0-3.4-1.4","8cduqzasr7gj3lz",206,"55.csv","","null","resources/maskTrios/L4BB.jpg","null","",NA,NA,NA,NA,""
"image-keyboard-response",25,102580,"0.0-3.4-2.4","8cduqzasr7gj3lz",206,"55.csv","","null","resources/images/fishbone.png","null","",NA,NA,NA,NA,""
"image-keyboard-response",26,103044,"0.0-3.5-0.5","8cduqzasr7gj3lz",206,"55.csv","","461.69999980926514","resources/trios/L2T4A2.jpg","37","restless",0.3,0.9,0.7,0.111628981858253,"true"
"image-keyboard-response",27,103451,"0.0-3.5-1.5","8cduqzasr7gj3lz",206,"55.csv","","null","resources/maskTrios/L2BB.jpg","null","",NA,NA,NA,NA,""
"image-keyboard-response",28,104659,"0.0-3.5-2.5","8cduqzasr7gj3lz",206,"55.csv","","null","resources/images/coin2.png","null","",NA,NA,NA,NA,""
"image-keyboard-response",29,105938,"0.0-3.6-0.6","8cduqzasr7gj3lz",206,"55.csv","","1275.7999997138977","resources/trios/L2T4A2.jpg","38","restless",0.3,0.9,0.7,0.246136989466644,"true"
"image-keyboard-response",30,106345,"0.0-3.6-1.6","8cduqzasr7gj3lz",206,"55.csv","","null","resources/maskTrios/BT4B.jpg","null","",NA,NA,NA,NA,""
"image-keyboard-response",31,107548,"0.0-3.6-2.6","8cduqzasr7gj3lz",206,"55.csv","","null","resources/images/coin2.png","null","",NA,NA,NA,NA,""
"image-keyboard-response",32,108069,"0.0-3.7-0.7","8cduqzasr7gj3lz",206,"55.csv","","518.6999998092651","resources/trios/L4T1A2.jpg","39","restless",0.3,0.9,0.7,0.403477673641163,"true"
"image-keyboard-response",33,108477,"0.0-3.7-1.7","8cduqzasr7gj3lz",206,"55.csv","","null","resources/maskTrios/BBA2.jpg","null","",NA,NA,NA,NA,""
"image-keyboard-response",34,109682,"0.0-3.7-2.7","8cduqzasr7gj3lz",206,"55.csv","","null","resources/images/coin2.png","null","",NA,NA,NA,NA,""
"image-keyboard-response",35,110116,"0.0-3.8-0.8","8cduqzasr7gj3lz",206,"55.csv","","430.40000009536743","resources/trios/L4T1A1.jpg","37","restless",0.3,0.9,0.7,0.662197675785485,"false"
"image-keyboard-response",36,110523,"0.0-3.8-1.8","8cduqzasr7gj3lz",206,"55.csv","","null","resources/maskTrios/L4BB.jpg","null","",NA,NA,NA,NA,""
"image-keyboard-response",37,111725,"0.0-3.8-2.8","8cduqzasr7gj3lz",206,"55.csv","","null","resources/images/fishbone.png","null","",NA,NA,NA,NA,""
"image-keyboard-response",38,112200,"0.0-3.9-0.9","8cduqzasr7gj3lz",206,"55.csv","","471.7000002861023","resources/trios/L2T1A1.jpg","39","restless",0.3,0.9,0.7,0.159359980053553,"true"
"image-keyboard-response",39,112607,"0.0-3.9-1.9","8cduqzasr7gj3lz",206,"55.csv","","null","resources/maskTrios/BBA1.jpg","null","",NA,NA,NA,NA,""
"image-keyboard-response",40,113811,"0.0-3.9-2.9","8cduqzasr7gj3lz",206,"55.csv","","null","resources/images/coin2.png","null","",NA,NA,NA,NA,""
"image-keyboard-response",41,114154,"0.0-3.10-0.10","8cduqzasr7gj3lz",206,"55.csv","","340.90000009536743","resources/trios/L4T1A2.jpg","39","restless",0.3,0.8,0.7,0.895771458377694,"false"
"image-keyboard-response",42,114557,"0.0-3.10-1.10","8cduqzasr7gj3lz",206,"55.csv","","null","resources/maskTrios/BBA2.jpg","null","",NA,NA,NA,NA,""
"image-keyboard-response",43,115759,"0.0-3.10-2.10","8cduqzasr7gj3lz",206,"55.csv","","null","resources/images/fishbone.png","null","",NA,NA,NA,NA,""
"image-keyboard-response",44,115954,"0.0-3.11-0.11","8cduqzasr7gj3lz",206,"55.csv","","192.80000019073486","resources/trios/L2T4A2.jpg","38","restless",0.3,0.8,0.7,0.999377679443766,"false"
"image-keyboard-response",45,116362,"0.0-3.11-1.11","8cduqzasr7gj3lz",206,"55.csv","","null","resources/maskTrios/BT4B.jpg","null","",NA,NA,NA,NA,""
"image-keyboard-response",46,117566,"0.0-3.11-2.11","8cduqzasr7gj3lz",206,"55.csv","","null","resources/images/fishbone.png","null","",NA,NA,NA,NA,""
"image-keyboard-response",47,118014,"0.0-3.12-0.12","8cduqzasr7gj3lz",206,"55.csv","","446.40000009536743","resources/trios/L2T1A2.jpg","37","restless",0.3,0.8,0.7,0.129606962717747,"true"
"image-keyboard-response",48,118420,"0.0-3.12-1.12","8cduqzasr7gj3lz",206,"55.csv","","null","resources/maskTrios/L2BB.jpg","null","",NA,NA,NA,NA,""
"image-keyboard-response",49,119626,"0.0-3.12-2.12","8cduqzasr7gj3lz",206,"55.csv","","null","resources/images/coin2.png","null","",NA,NA,NA,NA,""
"image-keyboard-response",50,119937,"0.0-3.13-0.13","8cduqzasr7gj3lz",206,"55.csv","","308.69999980926514","resources/trios/L4T1A1.jpg","37","restless",0.3,0.8,0.7,0.690052257558827,"false"
"image-keyboard-response",51,120344,"0.0-3.13-1.13","8cduqzasr7gj3lz",206,"55.csv","","null","resources/maskTrios/L4BB.jpg","null","",NA,NA,NA,NA,""
"image-keyboard-response",52,121551,"0.0-3.13-2.13","8cduqzasr7gj3lz",206,"55.csv","","null","resources/images/fishbone.png","null","",NA,NA,NA,NA,""
"image-keyboard-response",53,122307,"0.0-3.14-0.14","8cduqzasr7gj3lz",206,"55.csv","","753.1000003814697","resources/trios/L4T1A1.jpg","39","restless",0.3,0.8,0.7,0.87955775618422,"false"
"image-keyboard-response",54,122710,"0.0-3.14-1.14","8cduqzasr7gj3lz",206,"55.csv","","null","resources/maskTrios/BBA1.jpg","null","",NA,NA,NA,NA,""
"image-keyboard-response",55,123917,"0.0-3.14-2.14","8cduqzasr7gj3lz",206,"55.csv","","null","resources/images/fishbone.png","null","",NA,NA,NA,NA,""
"image-keyboard-response",56,124231,"0.0-3.15-0.15","8cduqzasr7gj3lz",206,"55.csv","","310.90000009536743","resources/trios/L2T1A1.jpg","38","restless",0.3,0.8,0.7,0.583235448291028,"true"
"image-keyboard-response",57,124638,"0.0-3.15-1.15","8cduqzasr7gj3lz",206,"55.csv","","null","resources/maskTrios/BT1B.jpg","null","",NA,NA,NA,NA,""
"image-keyboard-response",58,125846,"0.0-3.15-2.15","8cduqzasr7gj3lz",206,"55.csv","","null","resources/images/coin2.png","null","",NA,NA,NA,NA,""
"image-keyboard-response",59,126498,"0.0-3.16-0.16","8cduqzasr7gj3lz",206,"55.csv","","650.4000000953674","resources/trios/L4T4A1.jpg","38","restless",0.3,0.8,0.7,0.222506106019386,"true"
"image-keyboard-response",60,126902,"0.0-3.16-1.16","8cduqzasr7gj3lz",206,"55.csv","","null","resources/maskTrios/BT4B.jpg","null","",NA,NA,NA,NA,""
"image-keyboard-response",61,128110,"0.0-3.16-2.16","8cduqzasr7gj3lz",206,"55.csv","","null","resources/images/coin2.png","null","",NA,NA,NA,NA,""
"image-keyboard-response",62,128364,"0.0-3.17-0.17","8cduqzasr7gj3lz",206,"55.csv","","251.7999997138977","resources/trios/L2T4A2.jpg","38","restless",0.4,0.8,0.7,0.52332439148934,"true"
"image-keyboard-response",63,128770,"0.0-3.17-1.17","8cduqzasr7gj3lz",206,"55.csv","","null","resources/maskTrios/BT4B.jpg","null","",NA,NA,NA,NA,""
"image-keyboard-response",64,129978,"0.0-3.17-2.17","8cduqzasr7gj3lz",206,"55.csv","","null","resources/images/coin2.png","null","",NA,NA,NA,NA,""
"image-keyboard-response",65,130268,"0.0-3.18-0.18","8cduqzasr7gj3lz",206,"55.csv","","287.7000002861023","resources/trios/L2T1A2.jpg","38","restless",0.4,0.7,0.7,0.598262763939712,"true"
"image-keyboard-response",66,130671,"0.0-3.18-1.18","8cduqzasr7gj3lz",206,"55.csv","","null","resources/maskTrios/BT1B.jpg","null","",NA,NA,NA,NA,""
"image-keyboard-response",67,131880,"0.0-3.18-2.18","8cduqzasr7gj3lz",206,"55.csv","","null","resources/images/coin2.png","null","",NA,NA,NA,NA,""
"image-keyboard-response",68,132124,"0.0-3.19-0.19","8cduqzasr7gj3lz",206,"55.csv","","242.30000019073486","resources/trios/L2T1A1.jpg","38","restless",0.4,0.6,0.7,0.307540084241543,"true"
"image-keyboard-response",69,132532,"0.0-3.19-1.19","8cduqzasr7gj3lz",206,"55.csv","","null","resources/maskTrios/BT1B.jpg","null","",NA,NA,NA,NA,""
"image-keyboard-response",70,133735,"0.0-3.19-2.19","8cduqzasr7gj3lz",206,"55.csv","","null","resources/images/coin2.png","null","",NA,NA,NA,NA,""
"image-keyboard-response",71,134048,"0.0-3.20-0.20","8cduqzasr7gj3lz",206,"55.csv","","309.80000019073486","resources/trios/L4T1A2.jpg","38","restless",0.4,0.6,0.7,0.565951025612109,"true"
"image-keyboard-response",72,134455,"0.0-3.20-1.20","8cduqzasr7gj3lz",206,"55.csv","","null","resources/maskTrios/BT1B.jpg","null","",NA,NA,NA,NA,""
"image-keyboard-response",73,135662,"0.0-3.20-2.20","8cduqzasr7gj3lz",206,"55.csv","","null","resources/images/coin2.png","null","",NA,NA,NA,NA,""
"image-keyboard-response",74,135980,"0.0-3.21-0.21","8cduqzasr7gj3lz",206,"55.csv","","314.09999990463257","resources/trios/L2T4A1.jpg","38","restless",0.4,0.6,0.7,0.0891815708992842,"true"
"image-keyboard-response",75,136387,"0.0-3.21-1.21","8cduqzasr7gj3lz",206,"55.csv","","null","resources/maskTrios/BT4B.jpg","null","",NA,NA,NA,NA,""
"image-keyboard-response",76,137594,"0.0-3.21-2.21","8cduqzasr7gj3lz",206,"55.csv","","null","resources/images/coin2.png","null","",NA,NA,NA,NA,""
"image-keyboard-response",77,137880,"0.0-3.22-0.22","8cduqzasr7gj3lz",206,"55.csv","","283.5","resources/trios/L2T1A2.jpg","38","restless",0.4,0.6,0.7,0.287143177161039,"true"
"image-keyboard-response",78,138287,"0.0-3.22-1.22","8cduqzasr7gj3lz",206,"55.csv","","null","resources/maskTrios/BT1B.jpg","null","",NA,NA,NA,NA,""
"image-keyboard-response",79,139493,"0.0-3.22-2.22","8cduqzasr7gj3lz",206,"55.csv","","null","resources/images/coin2.png","null","",NA,NA,NA,NA,""
"image-keyboard-response",80,139757,"0.0-3.23-0.23","8cduqzasr7gj3lz",206,"55.csv","","262.5","resources/trios/L2T4A2.jpg","38","restless",0.4,0.6,0.7,0.222672339413944,"true"
"image-keyboard-response",81,140164,"0.0-3.23-1.23","8cduqzasr7gj3lz",206,"55.csv","","null","resources/maskTrios/BT4B.jpg","null","",NA,NA,NA,NA,""
"image-keyboard-response",82,141369,"0.0-3.23-2.23","8cduqzasr7gj3lz",206,"55.csv","","null","resources/images/coin2.png","null","",NA,NA,NA,NA,""
"image-keyboard-response",83,141838,"0.0-3.24-0.24","8cduqzasr7gj3lz",206,"55.csv","","467.09999990463257","resources/trios/L2T1A1.jpg","37","restless",0.4,0.6,0.7,0.762959004534052,"false"
"image-keyboard-response",84,142245,"0.0-3.24-1.24","8cduqzasr7gj3lz",206,"55.csv","","null","resources/maskTrios/L2BB.jpg","null","",NA,NA,NA,NA,""
"image-keyboard-response",85,143452,"0.0-3.24-2.24","8cduqzasr7gj3lz",206,"55.csv","","null","resources/images/fishbone.png","null","",NA,NA,NA,NA,""
"image-keyboard-response",86,143705,"0.0-3.25-0.25","8cduqzasr7gj3lz",206,"55.csv","","251.09999990463257","resources/trios/L2T4A1.jpg","38","restless",0.4,0.6,0.7,0.00971059548324416,"true"
"image-keyboard-response",87,144112,"0.0-3.25-1.25","8cduqzasr7gj3lz",206,"55.csv","","null","resources/maskTrios/BT4B.jpg","null","",NA,NA,NA,NA,""
"image-keyboard-response",88,145316,"0.0-3.25-2.25","8cduqzasr7gj3lz",206,"55.csv","","null","resources/images/coin2.png","null","",NA,NA,NA,NA,""
"image-keyboard-response",89,145866,"0.0-3.26-0.26","8cduqzasr7gj3lz",206,"55.csv","","547.8000001907349","resources/trios/L4T4A2.jpg","38","restless",0.4,0.6,0.7,0.468516644195635,"true"
"image-keyboard-response",90,146270,"0.0-3.26-1.26","8cduqzasr7gj3lz",206,"55.csv","","null","resources/maskTrios/BT4B.jpg","null","",NA,NA,NA,NA,""
"image-keyboard-response",91,147476,"0.0-3.26-2.26","8cduqzasr7gj3lz",206,"55.csv","","null","resources/images/coin2.png","null","",NA,NA,NA,NA,""
"image-keyboard-response",92,147871,"0.0-3.27-0.27","8cduqzasr7gj3lz",206,"55.csv","","392.2999997138977","resources/trios/L2T1A1.jpg","38","restless",0.4,0.6,0.7,0.432069413520505,"true"
"image-keyboard-response",93,148278,"0.0-3.27-1.27","8cduqzasr7gj3lz",206,"55.csv","","null","resources/maskTrios/BT1B.jpg","null","",NA,NA,NA,NA,""
"image-keyboard-response",94,149482,"0.0-3.27-2.27","8cduqzasr7gj3lz",206,"55.csv","","null","resources/images/coin2.png","null","",NA,NA,NA,NA,""
"image-keyboard-response",95,149759,"0.0-3.28-0.28","8cduqzasr7gj3lz",206,"55.csv","","275.09999990463257","resources/trios/L4T4A1.jpg","38","restless",0.4,0.6,0.8,0.168961689172886,"true"
"image-keyboard-response",96,150164,"0.0-3.28-1.28","8cduqzasr7gj3lz",206,"55.csv","","null","resources/maskTrios/BT4B.jpg","null","",NA,NA,NA,NA,""
"image-keyboard-response",97,151370,"0.0-3.28-2.28","8cduqzasr7gj3lz",206,"55.csv","","null","resources/images/coin2.png","null","",NA,NA,NA,NA,""
"image-keyboard-response",98,151676,"0.0-3.29-0.29","8cduqzasr7gj3lz",206,"55.csv","","304.80000019073486","resources/trios/L2T4A1.jpg","38","restless",0.4,0.6,0.8,0.695705196530017,"false"
"image-keyboard-response",99,152081,"0.0-3.29-1.29","8cduqzasr7gj3lz",206,"55.csv","","null","resources/maskTrios/BT4B.jpg","null","",NA,NA,NA,NA,""
"image-keyboard-response",100,153287,"0.0-3.29-2.29","8cduqzasr7gj3lz",206,"55.csv","","null","resources/images/fishbone.png","null","",NA,NA,NA,NA,""
"image-keyboard-response",101,153705,"0.0-3.30-0.30","8cduqzasr7gj3lz",206,"55.csv","","415.8999996185303","resources/trios/L4T1A2.jpg","37","restless",0.4,0.6,0.8,0.122465603551989,"true"
"image-keyboard-response",102,154112,"0.0-3.30-1.30","8cduqzasr7gj3lz",206,"55.csv","","null","resources/maskTrios/L4BB.jpg","null","",NA,NA,NA,NA,""
"image-keyboard-response",103,155315,"0.0-3.30-2.30","8cduqzasr7gj3lz",206,"55.csv","","null","resources/images/coin2.png","null","",NA,NA,NA,NA,""
"image-keyboard-response",104,155570,"0.0-3.31-0.31","8cduqzasr7gj3lz",206,"55.csv","","253.2000002861023","resources/trios/L2T4A2.jpg","37","restless",0.4,0.6,0.7,0.06886595944152,"true"
"image-keyboard-response",105,155978,"0.0-3.31-1.31","8cduqzasr7gj3lz",206,"55.csv","","null","resources/maskTrios/L2BB.jpg","null","",NA,NA,NA,NA,""
"image-keyboard-response",106,157183,"0.0-3.31-2.31","8cduqzasr7gj3lz",206,"55.csv","","null","resources/images/coin2.png","null","",NA,NA,NA,NA,""
"image-keyboard-response",107,157434,"0.0-3.32-0.32","8cduqzasr7gj3lz",206,"55.csv","","249","resources/trios/L2T1A1.jpg","37","restless",0.4,0.6,0.7,0.273254834426538,"true"
"image-keyboard-response",108,157839,"0.0-3.32-1.32","8cduqzasr7gj3lz",206,"55.csv","","null","resources/maskTrios/L2BB.jpg","null","",NA,NA,NA,NA,""
"image-keyboard-response",109,159046,"0.0-3.32-2.32","8cduqzasr7gj3lz",206,"55.csv","","null","resources/images/coin2.png","null","",NA,NA,NA,NA,""
"image-keyboard-response",110,159426,"0.0-3.33-0.33","8cduqzasr7gj3lz",206,"55.csv","","377.59999990463257","resources/trios/L2T1A1.jpg","37","restless",0.4,0.6,0.7,0.704180251418622,"false"
"image-keyboard-response",111,159828,"0.0-3.33-1.33","8cduqzasr7gj3lz",206,"55.csv","","null","resources/maskTrios/L2BB.jpg","null","",NA,NA,NA,NA,""
"image-keyboard-response",112,161035,"0.0-3.33-2.33","8cduqzasr7gj3lz",206,"55.csv","","null","resources/images/fishbone.png","null","",NA,NA,NA,NA,""
"image-keyboard-response",113,161315,"0.0-3.34-0.34","8cduqzasr7gj3lz",206,"55.csv","","278.09999990463257","resources/trios/L2T4A1.jpg","39","restless",0.4,0.6,0.7,0.60631925125723,"true"
"image-keyboard-response",114,161722,"0.0-3.34-1.34","8cduqzasr7gj3lz",206,"55.csv","","null","resources/maskTrios/BBA1.jpg","null","",NA,NA,NA,NA,""
"image-keyboard-response",115,162930,"0.0-3.34-2.34","8cduqzasr7gj3lz",206,"55.csv","","null","resources/images/coin2.png","null","",NA,NA,NA,NA,""
"image-keyboard-response",116,163186,"0.0-3.35-0.35","8cduqzasr7gj3lz",206,"55.csv","","254.2000002861023","resources/trios/L4T1A1.jpg","39","restless",0.4,0.6,0.7,0.49539668102186,"true"
"image-keyboard-response",117,163591,"0.0-3.35-1.35","8cduqzasr7gj3lz",206,"55.csv","","null","resources/maskTrios/BBA1.jpg","null","",NA,NA,NA,NA,""
"image-keyboard-response",118,164798,"0.0-3.35-2.35","8cduqzasr7gj3lz",206,"55.csv","","null","resources/images/coin2.png","null","",NA,NA,NA,NA,""
"image-keyboard-response",119,165069,"0.0-3.36-0.36","8cduqzasr7gj3lz",206,"55.csv","","269","resources/trios/L4T1A1.jpg","39","restless",0.4,0.6,0.7,0.35545030986296,"true"
"image-keyboard-response",120,165475,"0.0-3.36-1.36","8cduqzasr7gj3lz",206,"55.csv","","null","resources/maskTrios/BBA1.jpg","null","",NA,NA,NA,NA,""
"image-keyboard-response",121,166680,"0.0-3.36-2.36","8cduqzasr7gj3lz",206,"55.csv","","null","resources/images/coin2.png","null","",NA,NA,NA,NA,""
"image-keyboard-response",122,167187,"0.0-3.37-0.37","8cduqzasr7gj3lz",206,"55.csv","","504.09999990463257","resources/trios/L2T1A1.jpg","39","restless",0.4,0.6,0.7,0.783025430477495,"false"
"image-keyboard-response",123,167594,"0.0-3.37-1.37","8cduqzasr7gj3lz",206,"55.csv","","null","resources/maskTrios/BBA1.jpg","null","",NA,NA,NA,NA,""
"image-keyboard-response",124,168799,"0.0-3.37-2.37","8cduqzasr7gj3lz",206,"55.csv","","null","resources/images/fishbone.png","null","",NA,NA,NA,NA,""
"image-keyboard-response",125,171304,"0.0-3.38-0.38","8cduqzasr7gj3lz",206,"55.csv","","2503","resources/trios/L4T4A1.jpg","39","restless",0.4,0.6,0.7,0.374259312105025,"true"
"image-keyboard-response",126,171711,"0.0-3.38-1.38","8cduqzasr7gj3lz",206,"55.csv","","null","resources/maskTrios/BBA1.jpg","null","",NA,NA,NA,NA,""
"image-keyboard-response",127,172919,"0.0-3.38-2.38","8cduqzasr7gj3lz",206,"55.csv","","null","resources/images/coin2.png","null","",NA,NA,NA,NA,""
"image-keyboard-response",128,173452,"0.0-3.39-0.39","8cduqzasr7gj3lz",206,"55.csv","","530.9000000953674","resources/trios/L2T1A1.jpg","39","restless",0.4,0.6,0.7,0.355659122446319,"true"
"image-keyboard-response",129,173859,"0.0-3.39-1.39","8cduqzasr7gj3lz",206,"55.csv","","null","resources/maskTrios/BBA1.jpg","null","",NA,NA,NA,NA,""
"image-keyboard-response",130,175066,"0.0-3.39-2.39","8cduqzasr7gj3lz",206,"55.csv","","null","resources/images/coin2.png","null","",NA,NA,NA,NA,""
"image-keyboard-response",131,175326,"0.0-3.40-0.40","8cduqzasr7gj3lz",206,"55.csv","","256.8999996185303","resources/trios/L2T1A1.jpg","39","restless",0.4,0.6,0.7,0.636049640201838,"true"
"image-keyboard-response",132,175733,"0.0-3.40-1.40","8cduqzasr7gj3lz",206,"55.csv","","null","resources/maskTrios/BBA1.jpg","null","",NA,NA,NA,NA,""
"image-keyboard-response",133,176936,"0.0-3.40-2.40","8cduqzasr7gj3lz",206,"55.csv","","null","resources/images/coin2.png","null","",NA,NA,NA,NA,""
"image-keyboard-response",134,177324,"0.0-3.41-0.41","8cduqzasr7gj3lz",206,"55.csv","","385.69999980926514","resources/trios/L4T1A2.jpg","39","restless",0.4,0.6,0.7,0.925383450903611,"false"
"image-keyboard-response",135,177729,"0.0-3.41-1.41","8cduqzasr7gj3lz",206,"55.csv","","null","resources/maskTrios/BBA2.jpg","null","",NA,NA,NA,NA,""
"image-keyboard-response",136,178931,"0.0-3.41-2.41","8cduqzasr7gj3lz",206,"55.csv","","null","resources/images/fishbone.png","null","",NA,NA,NA,NA,""
"image-keyboard-response",137,180156,"0.0-3.42-0.42","8cduqzasr7gj3lz",206,"55.csv","","1222.8000001907349","resources/trios/L4T4A2.jpg","38","restless",0.4,0.6,0.6,0.396722023395963,"true"
"image-keyboard-response",138,180560,"0.0-3.42-1.42","8cduqzasr7gj3lz",206,"55.csv","","null","resources/maskTrios/BT4B.jpg","null","",NA,NA,NA,NA,""
"image-keyboard-response",139,181767,"0.0-3.42-2.42","8cduqzasr7gj3lz",206,"55.csv","","null","resources/images/coin2.png","null","",NA,NA,NA,NA,""
"image-keyboard-response",140,182073,"0.0-3.43-0.43","8cduqzasr7gj3lz",206,"55.csv","","303.80000019073486","resources/trios/L4T4A1.jpg","38","restless",0.4,0.6,0.6,0.796194258262165,"false"
"image-keyboard-response",141,182475,"0.0-3.43-1.43","8cduqzasr7gj3lz",206,"55.csv","","null","resources/maskTrios/BT4B.jpg","null","",NA,NA,NA,NA,""
"image-keyboard-response",142,183678,"0.0-3.43-2.43","8cduqzasr7gj3lz",206,"55.csv","","null","resources/images/fishbone.png","null","",NA,NA,NA,NA,""
"image-keyboard-response",143,184022,"0.0-3.44-0.44","8cduqzasr7gj3lz",206,"55.csv","","342","resources/trios/L4T1A1.jpg","37","restless",0.4,0.6,0.6,0.740717769176289,"false"
"image-keyboard-response",144,184427,"0.0-3.44-1.44","8cduqzasr7gj3lz",206,"55.csv","","null","resources/maskTrios/L4BB.jpg","null","",NA,NA,NA,NA,""
"image-keyboard-response",145,185630,"0.0-3.44-2.44","8cduqzasr7gj3lz",206,"55.csv","","null","resources/images/fishbone.png","null","",NA,NA,NA,NA,""
"image-keyboard-response",146,185951,"0.0-3.45-0.45","8cduqzasr7gj3lz",206,"55.csv","","318.7000002861023","resources/trios/L4T1A2.jpg","39","restless",0.5,0.6,0.6,0.388930273619398,"true"
"image-keyboard-response",147,186358,"0.0-3.45-1.45","8cduqzasr7gj3lz",206,"55.csv","","null","resources/maskTrios/BBA2.jpg","null","",NA,NA,NA,NA,""
"image-keyboard-response",148,187565,"0.0-3.45-2.45","8cduqzasr7gj3lz",206,"55.csv","","null","resources/images/coin2.png","null","",NA,NA,NA,NA,""
"image-keyboard-response",149,187709,"0.0-3.46-0.46","8cduqzasr7gj3lz",206,"55.csv","","140.90000009536743","resources/trios/L2T1A2.jpg","38","restless",0.5,0.6,0.6,0.792993113726409,"false"
"image-keyboard-response",150,188116,"0.0-3.46-1.46","8cduqzasr7gj3lz",206,"55.csv","","null","resources/maskTrios/BT1B.jpg","null","",NA,NA,NA,NA,""
"image-keyboard-response",151,189320,"0.0-3.46-2.46","8cduqzasr7gj3lz",206,"55.csv","","null","resources/images/fishbone.png","null","",NA,NA,NA,NA,""
"image-keyboard-response",152,189657,"0.0-3.47-0.47","8cduqzasr7gj3lz",206,"55.csv","","334.2999997138977","resources/trios/L2T1A1.jpg","39","restless",0.5,0.6,0.6,0.937674258474133,"false"
"image-keyboard-response",153,190061,"0.0-3.47-1.47","8cduqzasr7gj3lz",206,"55.csv","","null","resources/maskTrios/BBA1.jpg","null","",NA,NA,NA,NA,""
"image-keyboard-response",154,191267,"0.0-3.47-2.47","8cduqzasr7gj3lz",206,"55.csv","","null","resources/images/fishbone.png","null","",NA,NA,NA,NA,""
"image-keyboard-response",155,191523,"0.0-3.48-0.48","8cduqzasr7gj3lz",206,"55.csv","","253.90000009536743","resources/trios/L2T4A1.jpg","38","restless",0.5,0.6,0.6,0.724925395879248,"false"
"image-keyboard-response",156,191930,"0.0-3.48-1.48","8cduqzasr7gj3lz",206,"55.csv","","null","resources/maskTrios/BT4B.jpg","null","",NA,NA,NA,NA,""
"image-keyboard-response",157,193137,"0.0-3.48-2.48","8cduqzasr7gj3lz",206,"55.csv","","null","resources/images/fishbone.png","null","",NA,NA,NA,NA,""
"image-keyboard-response",158,193402,"0.0-3.49-0.49","8cduqzasr7gj3lz",206,"55.csv","","262.90000009536743","resources/trios/L2T1A2.jpg","37","restless",0.5,0.6,0.6,0.988568133090805,"false"
"image-keyboard-response",159,193809,"0.0-3.49-1.49","8cduqzasr7gj3lz",206,"55.csv","","null","resources/maskTrios/L2BB.jpg","null","",NA,NA,NA,NA,""
"image-keyboard-response",160,195016,"0.0-3.49-2.49","8cduqzasr7gj3lz",206,"55.csv","","null","resources/images/fishbone.png","null","",NA,NA,NA,NA,""
"image-keyboard-response",161,195303,"0.0-3.50-0.50","8cduqzasr7gj3lz",206,"55.csv","","285.09999990463257","resources/trios/L2T1A2.jpg","39","restless",0.5,0.6,0.6,0.21754003912633,"true"
"image-keyboard-response",162,195709,"0.0-3.50-1.50","8cduqzasr7gj3lz",206,"55.csv","","null","resources/maskTrios/BBA2.jpg","null","",NA,NA,NA,NA,""
"image-keyboard-response",163,196913,"0.0-3.50-2.50","8cduqzasr7gj3lz",206,"55.csv","","null","resources/images/coin2.png","null","",NA,NA,NA,NA,""
"image-keyboard-response",164,197203,"0.0-3.51-0.51","8cduqzasr7gj3lz",206,"55.csv","","288.30000019073486","resources/trios/L2T1A1.jpg","39","restless",0.5,0.6,0.5,0.157564994901796,"true"
"image-keyboard-response",165,197610,"0.0-3.51-1.51","8cduqzasr7gj3lz",206,"55.csv","","null","resources/maskTrios/BBA1.jpg","null","",NA,NA,NA,NA,""
"image-keyboard-response",166,198815,"0.0-3.51-2.51","8cduqzasr7gj3lz",206,"55.csv","","null","resources/images/coin2.png","null","",NA,NA,NA,NA,""
"image-keyboard-response",167,199191,"0.0-3.52-0.52","8cduqzasr7gj3lz",206,"55.csv","","374.09999990463257","resources/trios/L4T1A1.jpg","39","restless",0.5,0.6,0.4,0.112986706930903,"true"
"image-keyboard-response",168,199598,"0.0-3.52-1.52","8cduqzasr7gj3lz",206,"55.csv","","null","resources/maskTrios/BBA1.jpg","null","",NA,NA,NA,NA,""
"image-keyboard-response",169,200805,"0.0-3.52-2.52","8cduqzasr7gj3lz",206,"55.csv","","null","resources/images/coin2.png","null","",NA,NA,NA,NA,""
"image-keyboard-response",170,201099,"0.0-3.53-0.53","8cduqzasr7gj3lz",206,"55.csv","","291.7000002861023","resources/trios/L4T4A1.jpg","39","restless",0.5,0.6,0.4,0.0996232237305577,"true"
"image-keyboard-response",171,201504,"0.0-3.53-1.53","8cduqzasr7gj3lz",206,"55.csv","","null","resources/maskTrios/BBA1.jpg","null","",NA,NA,NA,NA,""
"image-keyboard-response",172,202707,"0.0-3.53-2.53","8cduqzasr7gj3lz",206,"55.csv","","null","resources/images/coin2.png","null","",NA,NA,NA,NA,""
"image-keyboard-response",173,202979,"0.0-3.54-0.54","8cduqzasr7gj3lz",206,"55.csv","","270.30000019073486","resources/trios/L2T4A2.jpg","39","restless",0.5,0.6,0.4,0.684404759611341,"false"
"image-keyboard-response",174,203385,"0.0-3.54-1.54","8cduqzasr7gj3lz",206,"55.csv","","null","resources/maskTrios/BBA2.jpg","null","",NA,NA,NA,NA,""
"image-keyboard-response",175,204591,"0.0-3.54-2.54","8cduqzasr7gj3lz",206,"55.csv","","null","resources/images/fishbone.png","null","",NA,NA,NA,NA,""
"image-keyboard-response",176,204863,"0.0-3.55-0.55","8cduqzasr7gj3lz",206,"55.csv","","269.5","resources/trios/L2T1A2.jpg","37","restless",0.5,0.6,0.4,0.243386669717784,"true"
"image-keyboard-response",177,205267,"0.0-3.55-1.55","8cduqzasr7gj3lz",206,"55.csv","","null","resources/maskTrios/L2BB.jpg","null","",NA,NA,NA,NA,""
"image-keyboard-response",178,206473,"0.0-3.55-2.55","8cduqzasr7gj3lz",206,"55.csv","","null","resources/images/coin2.png","null","",NA,NA,NA,NA,""
"image-keyboard-response",179,206994,"0.0-3.56-0.56","8cduqzasr7gj3lz",206,"55.csv","","518.3000001907349","resources/trios/L2T4A1.jpg","37","restless",0.5,0.5,0.4,0.706285377712175,"false"
"image-keyboard-response",180,207401,"0.0-3.56-1.56","8cduqzasr7gj3lz",206,"55.csv","","null","resources/maskTrios/L2BB.jpg","null","",NA,NA,NA,NA,""
"image-keyboard-response",181,208606,"0.0-3.56-2.56","8cduqzasr7gj3lz",206,"55.csv","","null","resources/images/fishbone.png","null","",NA,NA,NA,NA,""
"image-keyboard-response",182,208906,"0.0-3.57-0.57","8cduqzasr7gj3lz",206,"55.csv","","297.80000019073486","resources/trios/L4T1A2.jpg","38","restless",0.6,0.5,0.4,0.10915279342205,"true"
"image-keyboard-response",183,209311,"0.0-3.57-1.57","8cduqzasr7gj3lz",206,"55.csv","","null","resources/maskTrios/BT1B.jpg","null","",NA,NA,NA,NA,""
"image-keyboard-response",184,210519,"0.0-3.57-2.57","8cduqzasr7gj3lz",206,"55.csv","","null","resources/images/coin2.png","null","",NA,NA,NA,NA,""
"image-keyboard-response",185,210805,"0.0-3.58-0.58","8cduqzasr7gj3lz",206,"55.csv","","284.30000019073486","resources/trios/L2T4A2.jpg","38","restless",0.5,0.5,0.4,0.440689431205615,"true"
"image-keyboard-response",186,211208,"0.0-3.58-1.58","8cduqzasr7gj3lz",206,"55.csv","","null","resources/maskTrios/BT4B.jpg","null","",NA,NA,NA,NA,""
"image-keyboard-response",187,212415,"0.0-3.58-2.58","8cduqzasr7gj3lz",206,"55.csv","","null","resources/images/coin2.png","null","",NA,NA,NA,NA,""
"image-keyboard-response",188,213721,"0.0-3.59-0.59","8cduqzasr7gj3lz",206,"55.csv","","1304","resources/trios/L4T1A1.jpg","38","restless",0.5,0.5,0.4,0.106540919389689,"true"
"image-keyboard-response",189,214125,"0.0-3.59-1.59","8cduqzasr7gj3lz",206,"55.csv","","null","resources/maskTrios/BT1B.jpg","null","",NA,NA,NA,NA,""
"image-keyboard-response",190,215332,"0.0-3.59-2.59","8cduqzasr7gj3lz",206,"55.csv","","null","resources/images/coin2.png","null","",NA,NA,NA,NA,""
"image-keyboard-response",191,215824,"0.0-3.60-0.60","8cduqzasr7gj3lz",206,"55.csv","","490","resources/trios/L4T4A2.jpg","38","restless",0.5,0.5,0.4,0.0977170599603334,"true"
"image-keyboard-response",192,216231,"0.0-3.60-1.60","8cduqzasr7gj3lz",206,"55.csv","","null","resources/maskTrios/BT4B.jpg","null","",NA,NA,NA,NA,""
"image-keyboard-response",193,217437,"0.0-3.60-2.60","8cduqzasr7gj3lz",206,"55.csv","","null","resources/images/coin2.png","null","",NA,NA,NA,NA,""
"image-keyboard-response",194,229962,"0.0-3.61-0.61","8cduqzasr7gj3lz",206,"55.csv","","12522.700000286102","resources/trios/L2T1A2.jpg","37","restless",0.5,0.5,0.5,0.618566782317566,"false"
"image-keyboard-response",195,230369,"0.0-3.61-1.61","8cduqzasr7gj3lz",206,"55.csv","","null","resources/maskTrios/L2BB.jpg","null","",NA,NA,NA,NA,""
"image-keyboard-response",196,231576,"0.0-3.61-2.61","8cduqzasr7gj3lz",206,"55.csv","","null","resources/images/fishbone.png","null","",NA,NA,NA,NA,""
"image-keyboard-response",197,231859,"0.0-3.62-0.62","8cduqzasr7gj3lz",206,"55.csv","","281","resources/trios/L2T1A1.jpg","38","restless",0.5,0.5,0.5,0.896162580030627,"false"
"image-keyboard-response",198,232263,"0.0-3.62-1.62","8cduqzasr7gj3lz",206,"55.csv","","null","resources/maskTrios/BT1B.jpg","null","",NA,NA,NA,NA,""
"image-keyboard-response",199,233469,"0.0-3.62-2.62","8cduqzasr7gj3lz",206,"55.csv","","null","resources/images/fishbone.png","null","",NA,NA,NA,NA,""
"image-keyboard-response",200,233729,"0.0-3.63-0.63","8cduqzasr7gj3lz",206,"55.csv","","258.69999980926514","resources/trios/L4T1A1.jpg","39","restless",0.5,0.5,0.5,0.534879336139195,"false"
"image-keyboard-response",201,234137,"0.0-3.63-1.63","8cduqzasr7gj3lz",206,"55.csv","","null","resources/maskTrios/BBA1.jpg","null","",NA,NA,NA,NA,""
"image-keyboard-response",202,235343,"0.0-3.63-2.63","8cduqzasr7gj3lz",206,"55.csv","","null","resources/images/fishbone.png","null","",NA,NA,NA,NA,""
"image-keyboard-response",203,235634,"0.0-3.64-0.64","8cduqzasr7gj3lz",206,"55.csv","","288.2999997138977","resources/trios/L4T1A2.jpg","37","restless",0.5,0.5,0.5,0.483197539272828,"true"
"image-keyboard-response",204,236041,"0.0-3.64-1.64","8cduqzasr7gj3lz",206,"55.csv","","null","resources/maskTrios/L4BB.jpg","null","",NA,NA,NA,NA,""
"image-keyboard-response",205,237248,"0.0-3.64-2.64","8cduqzasr7gj3lz",206,"55.csv","","null","resources/images/coin2.png","null","",NA,NA,NA,NA,""
"image-keyboard-response",206,237525,"0.0-3.65-0.65","8cduqzasr7gj3lz",206,"55.csv","","274","resources/trios/L2T1A2.jpg","37","restless",0.5,0.5,0.5,0.290839785810749,"true"
"image-keyboard-response",207,237932,"0.0-3.65-1.65","8cduqzasr7gj3lz",206,"55.csv","","null","resources/maskTrios/L2BB.jpg","null","",NA,NA,NA,NA,""
"image-keyboard-response",208,239135,"0.0-3.65-2.65","8cduqzasr7gj3lz",206,"55.csv","","null","resources/images/coin2.png","null","",NA,NA,NA,NA,""
"image-keyboard-response",209,241308,"0.0-3.66-0.66","8cduqzasr7gj3lz",206,"55.csv","","2172.5","resources/trios/L4T1A2.jpg","37","restless",0.5,0.5,0.5,0.682785591633879,"false"
"image-keyboard-response",210,241715,"0.0-3.66-1.66","8cduqzasr7gj3lz",206,"55.csv","","null","resources/maskTrios/L4BB.jpg","null","",NA,NA,NA,NA,""
"image-keyboard-response",211,242922,"0.0-3.66-2.66","8cduqzasr7gj3lz",206,"55.csv","","null","resources/images/fishbone.png","null","",NA,NA,NA,NA,""
"image-keyboard-response",212,244051,"0.0-3.67-0.67","8cduqzasr7gj3lz",206,"55.csv","","1127","resources/trios/L2T4A2.jpg","37","restless",0.4,0.5,0.5,0.736401265651857,"false"
"image-keyboard-response",213,244459,"0.0-3.67-1.67","8cduqzasr7gj3lz",206,"55.csv","","null","resources/maskTrios/L2BB.jpg","null","",NA,NA,NA,NA,""
"image-keyboard-response",214,245666,"0.0-3.67-2.67","8cduqzasr7gj3lz",206,"55.csv","","null","resources/images/fishbone.png","null","",NA,NA,NA,NA,""
"image-keyboard-response",215,245939,"0.0-3.68-0.68","8cduqzasr7gj3lz",206,"55.csv","","271.1000003814697","resources/trios/L2T1A2.jpg","39","restless",0.4,0.5,0.5,0.231061253294587,"true"
"image-keyboard-response",216,246343,"0.0-3.68-1.68","8cduqzasr7gj3lz",206,"55.csv","","null","resources/maskTrios/BBA2.jpg","null","",NA,NA,NA,NA,""
"image-keyboard-response",217,247550,"0.0-3.68-2.68","8cduqzasr7gj3lz",206,"55.csv","","null","resources/images/coin2.png","null","",NA,NA,NA,NA,""
"image-keyboard-response",218,247864,"0.0-3.69-0.69","8cduqzasr7gj3lz",206,"55.csv","","311.7999997138977","resources/trios/L2T4A2.jpg","39","restless",0.5,0.5,0.5,0.261807787425149,"true"
"image-keyboard-response",219,248270,"0.0-3.69-1.69","8cduqzasr7gj3lz",206,"55.csv","","null","resources/maskTrios/BBA2.jpg","null","",NA,NA,NA,NA,""
"image-keyboard-response",220,249474,"0.0-3.69-2.69","8cduqzasr7gj3lz",206,"55.csv","","null","resources/images/coin2.png","null","",NA,NA,NA,NA,""
"image-keyboard-response",221,249813,"0.0-3.70-0.70","8cduqzasr7gj3lz",206,"55.csv","","336.59999990463257","resources/trios/L2T1A2.jpg","39","restless",0.5,0.5,0.5,0.683360593352724,"false"
"image-keyboard-response",222,250220,"0.0-3.70-1.70","8cduqzasr7gj3lz",206,"55.csv","","null","resources/maskTrios/BBA2.jpg","null","",NA,NA,NA,NA,""
"image-keyboard-response",223,251427,"0.0-3.70-2.70","8cduqzasr7gj3lz",206,"55.csv","","null","resources/images/fishbone.png","null","",NA,NA,NA,NA,""
"image-keyboard-response",224,251919,"0.0-3.71-0.71","8cduqzasr7gj3lz",206,"55.csv","","490.19999980926514","resources/trios/L4T4A1.jpg","37","restless",0.5,0.5,0.5,0.512624628818036,"false"
"image-keyboard-response",225,252326,"0.0-3.71-1.71","8cduqzasr7gj3lz",206,"55.csv","","null","resources/maskTrios/L4BB.jpg","null","",NA,NA,NA,NA,""
"image-keyboard-response",226,253529,"0.0-3.71-2.71","8cduqzasr7gj3lz",206,"55.csv","","null","resources/images/fishbone.png","null","",NA,NA,NA,NA,""
"image-keyboard-response",227,255278,"0.0-3.72-0.72","8cduqzasr7gj3lz",206,"55.csv","","1744.5999999046326","resources/trios/L4T4A1.jpg","37","restless",0.6,0.5,0.5,0.992316760517957,"false"
"image-keyboard-response",228,255684,"0.0-3.72-1.72","8cduqzasr7gj3lz",206,"55.csv","","null","resources/maskTrios/L4BB.jpg","null","",NA,NA,NA,NA,""
"image-keyboard-response",229,256891,"0.0-3.72-2.72","8cduqzasr7gj3lz",206,"55.csv","","null","resources/images/fishbone.png","null","",NA,NA,NA,NA,""
"image-keyboard-response",230,257211,"0.0-3.73-0.73","8cduqzasr7gj3lz",206,"55.csv","","317.59999990463257","resources/trios/L4T1A2.jpg","38","restless",0.7,0.5,0.5,0.547590880492885,"false"
"image-keyboard-response",231,257615,"0.0-3.73-1.73","8cduqzasr7gj3lz",206,"55.csv","","null","resources/maskTrios/BT1B.jpg","null","",NA,NA,NA,NA,""
"image-keyboard-response",232,258822,"0.0-3.73-2.73","8cduqzasr7gj3lz",206,"55.csv","","null","resources/images/fishbone.png","null","",NA,NA,NA,NA,""
"image-keyboard-response",233,259072,"0.0-3.74-0.74","8cduqzasr7gj3lz",206,"55.csv","","248.09999990463257","resources/trios/L2T1A1.jpg","39","restless",0.7,0.5,0.5,0.313648608522281,"true"
"image-keyboard-response",234,259475,"0.0-3.74-1.74","8cduqzasr7gj3lz",206,"55.csv","","null","resources/maskTrios/BBA1.jpg","null","",NA,NA,NA,NA,""
"image-keyboard-response",235,260677,"0.0-3.74-2.74","8cduqzasr7gj3lz",206,"55.csv","","null","resources/images/coin2.png","null","",NA,NA,NA,NA,""
"image-keyboard-response",236,261220,"0.0-3.75-0.75","8cduqzasr7gj3lz",206,"55.csv","","540.5","resources/trios/L4T1A2.jpg","39","restless",0.7,0.5,0.4,0.0678751565059867,"true"
"image-keyboard-response",237,261625,"0.0-3.75-1.75","8cduqzasr7gj3lz",206,"55.csv","","null","resources/maskTrios/BBA2.jpg","null","",NA,NA,NA,NA,""
"image-keyboard-response",238,262831,"0.0-3.75-2.75","8cduqzasr7gj3lz",206,"55.csv","","null","resources/images/coin2.png","null","",NA,NA,NA,NA,""
"image-keyboard-response",239,263124,"0.0-3.76-0.76","8cduqzasr7gj3lz",206,"55.csv","","291","resources/trios/L2T1A2.jpg","39","restless",0.7,0.5,0.4,0.771931775166278,"false"
"image-keyboard-response",240,263529,"0.0-3.76-1.76","8cduqzasr7gj3lz",206,"55.csv","","null","resources/maskTrios/BBA2.jpg","null","",NA,NA,NA,NA,""
"image-keyboard-response",241,264735,"0.0-3.76-2.76","8cduqzasr7gj3lz",206,"55.csv","","null","resources/images/fishbone.png","null","",NA,NA,NA,NA,""
"image-keyboard-response",242,266175,"0.0-3.77-0.77","8cduqzasr7gj3lz",206,"55.csv","","1437.4000000953674","resources/trios/L2T1A2.jpg","37","restless",0.7,0.4,0.3,0.588423680219252,"true"
"image-keyboard-response",243,266582,"0.0-3.77-1.77","8cduqzasr7gj3lz",206,"55.csv","","null","resources/maskTrios/L2BB.jpg","null","",NA,NA,NA,NA,""
"image-keyboard-response",244,267789,"0.0-3.77-2.77","8cduqzasr7gj3lz",206,"55.csv","","null","resources/images/coin2.png","null","",NA,NA,NA,NA,""
"image-keyboard-response",245,268075,"0.0-3.78-0.78","8cduqzasr7gj3lz",206,"55.csv","","283.90000009536743","resources/trios/L4T1A2.jpg","37","restless",0.7,0.4,0.3,0.544244567902659,"true"
"image-keyboard-response",246,268478,"0.0-3.78-1.78","8cduqzasr7gj3lz",206,"55.csv","","null","resources/maskTrios/L4BB.jpg","null","",NA,NA,NA,NA,""
"image-keyboard-response",247,269685,"0.0-3.78-2.78","8cduqzasr7gj3lz",206,"55.csv","","null","resources/images/coin2.png","null","",NA,NA,NA,NA,""
"image-keyboard-response",248,270725,"0.0-3.79-0.79","8cduqzasr7gj3lz",206,"55.csv","","1037.3000001907349","resources/trios/L2T1A1.jpg","37","restless",0.7,0.4,0.3,0.0122949442728841,"true"
"image-keyboard-response",249,271129,"0.0-3.79-1.79","8cduqzasr7gj3lz",206,"55.csv","","null","resources/maskTrios/L2BB.jpg","null","",NA,NA,NA,NA,""
"image-keyboard-response",250,272335,"0.0-3.79-2.79","8cduqzasr7gj3lz",206,"55.csv","","null","resources/images/coin2.png","null","",NA,NA,NA,NA,""
"image-keyboard-response",251,272643,"0.0-3.80-0.80","8cduqzasr7gj3lz",206,"55.csv","","306.5","resources/trios/L2T4A1.jpg","37","restless",0.7,0.4,0.3,0.088990180184354,"true"
"image-keyboard-response",252,273047,"0.0-3.80-1.80","8cduqzasr7gj3lz",206,"55.csv","","null","resources/maskTrios/L2BB.jpg","null","",NA,NA,NA,NA,""
"image-keyboard-response",253,274250,"0.0-3.80-2.80","8cduqzasr7gj3lz",206,"55.csv","","null","resources/images/coin2.png","null","",NA,NA,NA,NA,""
"image-keyboard-response",254,274519,"0.0-3.81-0.81","8cduqzasr7gj3lz",206,"55.csv","","266.2999997138977","resources/trios/L2T4A1.jpg","37","restless",0.7,0.4,0.3,0.816727450559294,"false"
"image-keyboard-response",255,274925,"0.0-3.81-1.81","8cduqzasr7gj3lz",206,"55.csv","","null","resources/maskTrios/L2BB.jpg","null","",NA,NA,NA,NA,""
"image-keyboard-response",256,276132,"0.0-3.81-2.81","8cduqzasr7gj3lz",206,"55.csv","","null","resources/images/fishbone.png","null","",NA,NA,NA,NA,""
"image-keyboard-response",257,276394,"0.0-3.82-0.82","8cduqzasr7gj3lz",206,"55.csv","","260.40000009536743","resources/trios/L2T1A2.jpg","39","restless",0.7,0.3,0.3,0.395529441140996,"false"
"image-keyboard-response",258,276800,"0.0-3.82-1.82","8cduqzasr7gj3lz",206,"55.csv","","null","resources/maskTrios/BBA2.jpg","null","",NA,NA,NA,NA,""
"image-keyboard-response",259,278007,"0.0-3.82-2.82","8cduqzasr7gj3lz",206,"55.csv","","null","resources/images/fishbone.png","null","",NA,NA,NA,NA,""
"image-keyboard-response",260,278959,"0.0-3.83-0.83","8cduqzasr7gj3lz",206,"55.csv","","950.0999999046326","resources/trios/L2T4A1.jpg","38","restless",0.7,0.4,0.3,0.603525322459046,"false"
"image-keyboard-response",261,279365,"0.0-3.83-1.83","8cduqzasr7gj3lz",206,"55.csv","","null","resources/maskTrios/BT4B.jpg","null","",NA,NA,NA,NA,""
"image-keyboard-response",262,280572,"0.0-3.83-2.83","8cduqzasr7gj3lz",206,"55.csv","","null","resources/images/fishbone.png","null","",NA,NA,NA,NA,""
"image-keyboard-response",263,281705,"0.0-3.84-0.84","8cduqzasr7gj3lz",206,"55.csv","","1130.7000002861023","resources/trios/L2T4A2.jpg","37","restless",0.7,0.4,0.4,0.114630108749953,"true"
"image-keyboard-response",264,282109,"0.0-3.84-1.84","8cduqzasr7gj3lz",206,"55.csv","","null","resources/maskTrios/L2BB.jpg","null","",NA,NA,NA,NA,""
"image-keyboard-response",265,283316,"0.0-3.84-2.84","8cduqzasr7gj3lz",206,"55.csv","","null","resources/images/coin2.png","null","",NA,NA,NA,NA,""
"image-keyboard-response",266,286544,"0.0-3.85-0.85","8cduqzasr7gj3lz",206,"55.csv","","3225.4000000953674","resources/trios/L4T4A2.jpg","37","restless",0.7,0.5,0.4,0.197301294032751,"true"
"image-keyboard-response",267,286951,"0.0-3.85-1.85","8cduqzasr7gj3lz",206,"55.csv","","null","resources/maskTrios/L4BB.jpg","null","",NA,NA,NA,NA,""
"image-keyboard-response",268,288158,"0.0-3.85-2.85","8cduqzasr7gj3lz",206,"55.csv","","null","resources/images/coin2.png","null","",NA,NA,NA,NA,""
"image-keyboard-response",269,288974,"0.0-3.86-0.86","8cduqzasr7gj3lz",206,"55.csv","","813.8000001907349","resources/trios/L4T4A1.jpg","37","restless",0.8,0.5,0.4,0.959626779393823,"false"
"image-keyboard-response",270,289382,"0.0-3.86-1.86","8cduqzasr7gj3lz",206,"55.csv","","null","resources/maskTrios/L4BB.jpg","null","",NA,NA,NA,NA,""
"image-keyboard-response",271,290587,"0.0-3.86-2.86","8cduqzasr7gj3lz",206,"55.csv","","null","resources/images/fishbone.png","null","",NA,NA,NA,NA,""
"image-keyboard-response",272,292659,"0.0-3.87-0.87","8cduqzasr7gj3lz",206,"55.csv","","2069.1000003814697","resources/trios/L2T4A1.jpg","37","restless",0.8,0.5,0.4,0.489621310458254,"true"
"image-keyboard-response",273,293065,"0.0-3.87-1.87","8cduqzasr7gj3lz",206,"55.csv","","null","resources/maskTrios/L2BB.jpg","null","",NA,NA,NA,NA,""
"image-keyboard-response",274,294271,"0.0-3.87-2.87","8cduqzasr7gj3lz",206,"55.csv","","null","resources/images/coin2.png","null","",NA,NA,NA,NA,""
"image-keyboard-response",275,294937,"0.0-3.88-0.88","8cduqzasr7gj3lz",206,"55.csv","","663.6999998092651","resources/trios/L4T1A1.jpg","38","restless",0.8,0.5,0.4,0.340816181227241,"true"
"image-keyboard-response",276,295344,"0.0-3.88-1.88","8cduqzasr7gj3lz",206,"55.csv","","null","resources/maskTrios/BT1B.jpg","null","",NA,NA,NA,NA,""
"image-keyboard-response",277,296551,"0.0-3.88-2.88","8cduqzasr7gj3lz",206,"55.csv","","null","resources/images/coin2.png","null","",NA,NA,NA,NA,""
"image-keyboard-response",278,298161,"0.0-3.89-0.89","8cduqzasr7gj3lz",206,"55.csv","","1607.5","resources/trios/L4T4A2.jpg","38","restless",0.8,0.5,0.4,0.801213329265428,"false"
"image-keyboard-response",279,298568,"0.0-3.89-1.89","8cduqzasr7gj3lz",206,"55.csv","","null","resources/maskTrios/BT4B.jpg","null","",NA,NA,NA,NA,""
"image-keyboard-response",280,299774,"0.0-3.89-2.89","8cduqzasr7gj3lz",206,"55.csv","","null","resources/images/fishbone.png","null","",NA,NA,NA,NA,""
"image-keyboard-response",281,299950,"0.0-3.90-0.90","8cduqzasr7gj3lz",206,"55.csv","","173","resources/trios/L4T1A2.jpg","39","restless",0.8,0.5,0.4,0.368681887722532,"true"
"image-keyboard-response",282,300357,"0.0-3.90-1.90","8cduqzasr7gj3lz",206,"55.csv","","null","resources/maskTrios/BBA2.jpg","null","",NA,NA,NA,NA,""
"image-keyboard-response",283,301563,"0.0-3.90-2.90","8cduqzasr7gj3lz",206,"55.csv","","null","resources/images/coin2.png","null","",NA,NA,NA,NA,""
"image-keyboard-response",284,302281,"0.0-3.91-0.91","8cduqzasr7gj3lz",206,"55.csv","","714","resources/trios/L4T1A2.jpg","39","restless",0.8,0.5,0.4,0.706903057495086,"false"
"image-keyboard-response",285,302688,"0.0-3.91-1.91","8cduqzasr7gj3lz",206,"55.csv","","null","resources/maskTrios/BBA2.jpg","null","",NA,NA,NA,NA,""
"image-keyboard-response",286,303895,"0.0-3.91-2.91","8cduqzasr7gj3lz",206,"55.csv","","null","resources/images/fishbone.png","null","",NA,NA,NA,NA,""
"image-keyboard-response",287,306513,"0.0-3.92-0.92","8cduqzasr7gj3lz",206,"55.csv","","2615.5","resources/trios/L4T4A2.jpg","37","restless",0.7,0.5,0.4,0.193629577723346,"true"
"image-keyboard-response",288,306919,"0.0-3.92-1.92","8cduqzasr7gj3lz",206,"55.csv","","null","resources/maskTrios/L4BB.jpg","null","",NA,NA,NA,NA,""
"image-keyboard-response",289,308122,"0.0-3.92-2.92","8cduqzasr7gj3lz",206,"55.csv","","null","resources/images/coin2.png","null","",NA,NA,NA,NA,""
"image-keyboard-response",290,315015,"0.0-3.93-0.93","8cduqzasr7gj3lz",206,"55.csv","","6891.799999713898","resources/trios/L2T1A2.jpg","37","restless",0.7,0.5,0.4,0.553002171727047,"true"
"image-keyboard-response",291,315423,"0.0-3.93-1.93","8cduqzasr7gj3lz",206,"55.csv","","null","resources/maskTrios/L2BB.jpg","null","",NA,NA,NA,NA,""
"image-keyboard-response",292,316630,"0.0-3.93-2.93","8cduqzasr7gj3lz",206,"55.csv","","null","resources/images/coin2.png","null","",NA,NA,NA,NA,""
"image-keyboard-response",293,317288,"0.0-3.94-0.94","8cduqzasr7gj3lz",206,"55.csv","","655.6999998092651","resources/trios/L2T4A2.jpg","37","restless",0.7,0.5,0.4,0.505464495261009,"true"
"image-keyboard-response",294,317695,"0.0-3.94-1.94","8cduqzasr7gj3lz",206,"55.csv","","null","resources/maskTrios/L2BB.jpg","null","",NA,NA,NA,NA,""
"image-keyboard-response",295,318902,"0.0-3.94-2.94","8cduqzasr7gj3lz",206,"55.csv","","null","resources/images/coin2.png","null","",NA,NA,NA,NA,""
"image-keyboard-response",296,319254,"0.0-3.95-0.95","8cduqzasr7gj3lz",206,"55.csv","","350.3999996185303","resources/trios/L2T4A1.jpg","37","restless",0.7,0.4,0.4,0.970495443030023,"false"
"image-keyboard-response",297,319659,"0.0-3.95-1.95","8cduqzasr7gj3lz",206,"55.csv","","null","resources/maskTrios/L2BB.jpg","null","",NA,NA,NA,NA,""
"image-keyboard-response",298,320866,"0.0-3.95-2.95","8cduqzasr7gj3lz",206,"55.csv","","null","resources/images/fishbone.png","null","",NA,NA,NA,NA,""
"image-keyboard-response",299,321126,"0.0-3.96-0.96","8cduqzasr7gj3lz",206,"55.csv","","258.3999996185303","resources/trios/L4T1A1.jpg","39","restless",0.7,0.4,0.5,0.960360816023507,"false"
"image-keyboard-response",300,321529,"0.0-3.96-1.96","8cduqzasr7gj3lz",206,"55.csv","","null","resources/maskTrios/BBA1.jpg","null","",NA,NA,NA,NA,""
"image-keyboard-response",301,322733,"0.0-3.96-2.96","8cduqzasr7gj3lz",206,"55.csv","","null","resources/images/fishbone.png","null","",NA,NA,NA,NA,""
"image-keyboard-response",302,322843,"0.0-3.97-0.97","8cduqzasr7gj3lz",206,"55.csv","","108.30000019073486","resources/trios/L2T4A1.jpg","38","restless",0.7,0.4,0.5,0.726275319680438,"false"
"image-keyboard-response",303,323251,"0.0-3.97-1.97","8cduqzasr7gj3lz",206,"55.csv","","null","resources/maskTrios/BT4B.jpg","null","",NA,NA,NA,NA,""
"image-keyboard-response",304,324457,"0.0-3.97-2.97","8cduqzasr7gj3lz",206,"55.csv","","null","resources/images/fishbone.png","null","",NA,NA,NA,NA,""
"image-keyboard-response",305,325257,"0.0-3.98-0.98","8cduqzasr7gj3lz",206,"55.csv","","798.5","resources/trios/L2T1A1.jpg","37","restless",0.7,0.4,0.6,0.444022674090515,"true"
"image-keyboard-response",306,325665,"0.0-3.98-1.98","8cduqzasr7gj3lz",206,"55.csv","","null","resources/maskTrios/L2BB.jpg","null","",NA,NA,NA,NA,""
"image-keyboard-response",307,326872,"0.0-3.98-2.98","8cduqzasr7gj3lz",206,"55.csv","","null","resources/images/coin2.png","null","",NA,NA,NA,NA,""
"image-keyboard-response",308,329064,"0.0-3.99-0.99","8cduqzasr7gj3lz",206,"55.csv","","2189.9000000953674","resources/trios/L2T4A1.jpg","37","restless",0.8,0.4,0.6,0.937573932774505,"false"
"image-keyboard-response",309,329471,"0.0-3.99-1.99","8cduqzasr7gj3lz",206,"55.csv","","null","resources/maskTrios/L2BB.jpg","null","",NA,NA,NA,NA,""
"image-keyboard-response",310,330677,"0.0-3.99-2.99","8cduqzasr7gj3lz",206,"55.csv","","null","resources/images/fishbone.png","null","",NA,NA,NA,NA,""
"image-keyboard-response",311,331294,"0.0-3.100-0.100","8cduqzasr7gj3lz",206,"55.csv","","615.5","resources/trios/L2T1A1.jpg","39","restless",0.8,0.4,0.6,0.424615907715253,"true"
"image-keyboard-response",312,331699,"0.0-3.100-1.100","8cduqzasr7gj3lz",206,"55.csv","","null","resources/maskTrios/BBA1.jpg","null","",NA,NA,NA,NA,""
"image-keyboard-response",313,332906,"0.0-3.100-2.100","8cduqzasr7gj3lz",206,"55.csv","","null","resources/images/coin2.png","null","",NA,NA,NA,NA,""
"image-keyboard-response",314,333339,"0.0-3.101-0.101","8cduqzasr7gj3lz",206,"55.csv","","430.7000002861023","resources/trios/L2T1A2.jpg","39","restless",0.8,0.4,0.6,0.939775265189324,"false"
"image-keyboard-response",315,333743,"0.0-3.101-1.101","8cduqzasr7gj3lz",206,"55.csv","","null","resources/maskTrios/BBA2.jpg","null","",NA,NA,NA,NA,""
"image-keyboard-response",316,334950,"0.0-3.101-2.101","8cduqzasr7gj3lz",206,"55.csv","","null","resources/images/fishbone.png","null","",NA,NA,NA,NA,""
"image-keyboard-response",317,335238,"0.0-3.102-0.102","8cduqzasr7gj3lz",206,"55.csv","","285.2999997138977","resources/trios/L4T4A1.jpg","38","restless",0.8,0.4,0.6,0.689495501012508,"false"
"image-keyboard-response",318,335642,"0.0-3.102-1.102","8cduqzasr7gj3lz",206,"55.csv","","null","resources/maskTrios/BT4B.jpg","null","",NA,NA,NA,NA,""
"image-keyboard-response",319,336848,"0.0-3.102-2.102","8cduqzasr7gj3lz",206,"55.csv","","null","resources/images/fishbone.png","null","",NA,NA,NA,NA,""
"image-keyboard-response",320,337186,"0.0-3.103-0.103","8cduqzasr7gj3lz",206,"55.csv","","334.80000019073486","resources/trios/L2T1A2.jpg","37","restless",0.8,0.4,0.6,0.820556365307542,"false"
"image-keyboard-response",321,337593,"0.0-3.103-1.103","8cduqzasr7gj3lz",206,"55.csv","","null","resources/maskTrios/L2BB.jpg","null","",NA,NA,NA,NA,""
"image-keyboard-response",322,338795,"0.0-3.103-2.103","8cduqzasr7gj3lz",206,"55.csv","","null","resources/images/fishbone.png","null","",NA,NA,NA,NA,""
"image-keyboard-response",323,339086,"0.0-3.104-0.104","8cduqzasr7gj3lz",206,"55.csv","","288.90000009536743","resources/trios/L4T1A1.jpg","38","restless",0.8,0.4,0.6,0.0728201518639437,"true"
"image-keyboard-response",324,339492,"0.0-3.104-1.104","8cduqzasr7gj3lz",206,"55.csv","","null","resources/maskTrios/BT1B.jpg","null","",NA,NA,NA,NA,""
"image-keyboard-response",325,340695,"0.0-3.104-2.104","8cduqzasr7gj3lz",206,"55.csv","","null","resources/images/coin2.png","null","",NA,NA,NA,NA,""
"image-keyboard-response",326,341098,"0.0-3.105-0.105","8cduqzasr7gj3lz",206,"55.csv","","401.69999980926514","resources/trios/L2T4A1.jpg","38","restless",0.8,0.4,0.6,0.292361249923854,"true"
"image-keyboard-response",327,341506,"0.0-3.105-1.105","8cduqzasr7gj3lz",206,"55.csv","","null","resources/maskTrios/BT4B.jpg","null","",NA,NA,NA,NA,""
"image-keyboard-response",328,342713,"0.0-3.105-2.105","8cduqzasr7gj3lz",206,"55.csv","","null","resources/images/coin2.png","null","",NA,NA,NA,NA,""
"image-keyboard-response",329,343167,"0.0-3.106-0.106","8cduqzasr7gj3lz",206,"55.csv","","452.09999990463257","resources/trios/L2T1A1.jpg","38","restless",0.8,0.4,0.6,0.894254485305759,"false"
"image-keyboard-response",330,343574,"0.0-3.106-1.106","8cduqzasr7gj3lz",206,"55.csv","","null","resources/maskTrios/BT1B.jpg","null","",NA,NA,NA,NA,""
"image-keyboard-response",331,344777,"0.0-3.106-2.106","8cduqzasr7gj3lz",206,"55.csv","","null","resources/images/fishbone.png","null","",NA,NA,NA,NA,""
"image-keyboard-response",332,345187,"0.0-3.107-0.107","8cduqzasr7gj3lz",206,"55.csv","","408","resources/trios/L4T4A1.jpg","39","restless",0.8,0.4,0.6,0.944625403983694,"false"
"image-keyboard-response",333,345589,"0.0-3.107-1.107","8cduqzasr7gj3lz",206,"55.csv","","null","resources/maskTrios/BBA1.jpg","null","",NA,NA,NA,NA,""
"image-keyboard-response",334,346796,"0.0-3.107-2.107","8cduqzasr7gj3lz",206,"55.csv","","null","resources/images/fishbone.png","null","",NA,NA,NA,NA,""
"image-keyboard-response",335,348276,"0.0-3.108-0.108","8cduqzasr7gj3lz",206,"55.csv","","1478","resources/trios/L2T4A2.jpg","38","restless",0.8,0.4,0.6,0.882674758656935,"false"
"image-keyboard-response",336,348684,"0.0-3.108-1.108","8cduqzasr7gj3lz",206,"55.csv","","null","resources/maskTrios/BT4B.jpg","null","",NA,NA,NA,NA,""
"image-keyboard-response",337,349889,"0.0-3.108-2.108","8cduqzasr7gj3lz",206,"55.csv","","null","resources/images/fishbone.png","null","",NA,NA,NA,NA,""
"image-keyboard-response",338,349934,"0.0-3.109-0.109","8cduqzasr7gj3lz",206,"55.csv","","42.90000009536743","resources/trios/L2T1A2.jpg","39","restless",0.8,0.4,0.6,0.163297904318462,"true"
"image-keyboard-response",339,350341,"0.0-3.109-1.109","8cduqzasr7gj3lz",206,"55.csv","","null","resources/maskTrios/BBA2.jpg","null","",NA,NA,NA,NA,""
"image-keyboard-response",340,351548,"0.0-3.109-2.109","8cduqzasr7gj3lz",206,"55.csv","","null","resources/images/coin2.png","null","",NA,NA,NA,NA,""
"image-keyboard-response",341,351944,"0.0-3.110-0.110","8cduqzasr7gj3lz",206,"55.csv","","394","resources/trios/L4T4A2.jpg","39","restless",0.7,0.4,0.6,0.365775635119038,"true"
"image-keyboard-response",342,352351,"0.0-3.110-1.110","8cduqzasr7gj3lz",206,"55.csv","","null","resources/maskTrios/BBA2.jpg","null","",NA,NA,NA,NA,""
"image-keyboard-response",343,353557,"0.0-3.110-2.110","8cduqzasr7gj3lz",206,"55.csv","","null","resources/images/coin2.png","null","",NA,NA,NA,NA,""
"image-keyboard-response",344,354081,"0.0-3.111-0.111","8cduqzasr7gj3lz",206,"55.csv","","521.9000000953674","resources/trios/L2T4A1.jpg","39","restless",0.7,0.4,0.6,0.127948980252665,"true"
"image-keyboard-response",345,354487,"0.0-3.111-1.111","8cduqzasr7gj3lz",206,"55.csv","","null","resources/maskTrios/BBA1.jpg","null","",NA,NA,NA,NA,""
"image-keyboard-response",346,355693,"0.0-3.111-2.111","8cduqzasr7gj3lz",206,"55.csv","","null","resources/images/coin2.png","null","",NA,NA,NA,NA,""
"image-keyboard-response",347,356226,"0.0-3.112-0.112","8cduqzasr7gj3lz",206,"55.csv","","531.6999998092651","resources/trios/L4T1A1.jpg","39","restless",0.7,0.4,0.5,0.108784467763754,"true"
"image-keyboard-response",348,356632,"0.0-3.112-1.112","8cduqzasr7gj3lz",206,"55.csv","","null","resources/maskTrios/BBA1.jpg","null","",NA,NA,NA,NA,""
"image-keyboard-response",349,357839,"0.0-3.112-2.112","8cduqzasr7gj3lz",206,"55.csv","","null","resources/images/coin2.png","null","",NA,NA,NA,NA,""
"image-keyboard-response",350,358143,"0.0-3.113-0.113","8cduqzasr7gj3lz",206,"55.csv","","301","resources/trios/L2T4A1.jpg","39","restless",0.7,0.4,0.5,0.0839530980654672,"true"
"image-keyboard-response",351,358550,"0.0-3.113-1.113","8cduqzasr7gj3lz",206,"55.csv","","null","resources/maskTrios/BBA1.jpg","null","",NA,NA,NA,NA,""
"image-keyboard-response",352,359756,"0.0-3.113-2.113","8cduqzasr7gj3lz",206,"55.csv","","null","resources/images/coin2.png","null","",NA,NA,NA,NA,""
"image-keyboard-response",353,360183,"0.0-3.114-0.114","8cduqzasr7gj3lz",206,"55.csv","","425.5","resources/trios/L4T4A1.jpg","39","restless",0.7,0.4,0.5,0.413244165624121,"true"
"image-keyboard-response",354,360590,"0.0-3.114-1.114","8cduqzasr7gj3lz",206,"55.csv","","null","resources/maskTrios/BBA1.jpg","null","",NA,NA,NA,NA,""
"image-keyboard-response",355,361797,"0.0-3.114-2.114","8cduqzasr7gj3lz",206,"55.csv","","null","resources/images/coin2.png","null","",NA,NA,NA,NA,""
"image-keyboard-response",356,362141,"0.0-3.115-0.115","8cduqzasr7gj3lz",206,"55.csv","","342.5","resources/trios/L2T4A2.jpg","39","restless",0.7,0.4,0.6,0.339311198693028,"true"
"image-keyboard-response",357,362548,"0.0-3.115-1.115","8cduqzasr7gj3lz",206,"55.csv","","null","resources/maskTrios/BBA2.jpg","null","",NA,NA,NA,NA,""
"image-keyboard-response",358,363756,"0.0-3.115-2.115","8cduqzasr7gj3lz",206,"55.csv","","null","resources/images/coin2.png","null","",NA,NA,NA,NA,""
"image-keyboard-response",359,364184,"0.0-3.116-0.116","8cduqzasr7gj3lz",206,"55.csv","","426.2999997138977","resources/trios/L2T4A1.jpg","39","restless",0.7,0.4,0.6,0.641436095252893,"false"
"image-keyboard-response",360,364591,"0.0-3.116-1.116","8cduqzasr7gj3lz",206,"55.csv","","null","resources/maskTrios/BBA1.jpg","null","",NA,NA,NA,NA,""
"image-keyboard-response",361,365798,"0.0-3.116-2.116","8cduqzasr7gj3lz",206,"55.csv","","null","resources/images/fishbone.png","null","",NA,NA,NA,NA,""
"image-keyboard-response",362,366546,"0.0-3.117-0.117","8cduqzasr7gj3lz",206,"55.csv","","745.6999998092651","resources/trios/L4T1A2.jpg","39","restless",0.7,0.4,0.6,0.187273711199818,"true"
"image-keyboard-response",363,366953,"0.0-3.117-1.117","8cduqzasr7gj3lz",206,"55.csv","","null","resources/maskTrios/BBA2.jpg","null","",NA,NA,NA,NA,""
"image-keyboard-response",364,368162,"0.0-3.117-2.117","8cduqzasr7gj3lz",206,"55.csv","","null","resources/images/coin2.png","null","",NA,NA,NA,NA,""
"image-keyboard-response",365,368547,"0.0-3.118-0.118","8cduqzasr7gj3lz",206,"55.csv","","383.5","resources/trios/L2T1A2.jpg","39","restless",0.7,0.4,0.6,0.184746476781869,"true"
"image-keyboard-response",366,368951,"0.0-3.118-1.118","8cduqzasr7gj3lz",206,"55.csv","","null","resources/maskTrios/BBA2.jpg","null","",NA,NA,NA,NA,""
"image-keyboard-response",367,370158,"0.0-3.118-2.118","8cduqzasr7gj3lz",206,"55.csv","","null","resources/images/coin2.png","null","",NA,NA,NA,NA,""
"image-keyboard-response",368,370689,"0.0-3.119-0.119","8cduqzasr7gj3lz",206,"55.csv","","528.8000001907349","resources/trios/L4T1A1.jpg","39","restless",0.7,0.4,0.6,0.14764648139003,"true"
"image-keyboard-response",369,371095,"0.0-3.119-1.119","8cduqzasr7gj3lz",206,"55.csv","","null","resources/maskTrios/BBA1.jpg","null","",NA,NA,NA,NA,""
"image-keyboard-response",370,372302,"0.0-3.119-2.119","8cduqzasr7gj3lz",206,"55.csv","","null","resources/images/coin2.png","null","",NA,NA,NA,NA,""
"image-keyboard-response",371,372681,"0.0-3.120-0.120","8cduqzasr7gj3lz",206,"55.csv","","377","resources/trios/L2T1A1.jpg","39","restless",0.7,0.4,0.7,0.59044579333364,"true"
"image-keyboard-response",372,373088,"0.0-3.120-1.120","8cduqzasr7gj3lz",206,"55.csv","","null","resources/maskTrios/BBA1.jpg","null","",NA,NA,NA,NA,""
"image-keyboard-response",373,374295,"0.0-3.120-2.120","8cduqzasr7gj3lz",206,"55.csv","","null","resources/images/coin2.png","null","",NA,NA,NA,NA,""
"image-keyboard-response",374,374917,"0.0-3.121-0.121","8cduqzasr7gj3lz",206,"55.csv","","619.2999997138977","resources/trios/L4T4A2.jpg","39","restless",0.6,0.4,0.7,0.689313910712144,"true"
"image-keyboard-response",375,375324,"0.0-3.121-1.121","8cduqzasr7gj3lz",206,"55.csv","","null","resources/maskTrios/BBA2.jpg","null","",NA,NA,NA,NA,""
"image-keyboard-response",376,376527,"0.0-3.121-2.121","8cduqzasr7gj3lz",206,"55.csv","","null","resources/images/coin2.png","null","",NA,NA,NA,NA,""
"image-keyboard-response",377,376967,"0.0-3.122-0.122","8cduqzasr7gj3lz",206,"55.csv","","438","resources/trios/L2T1A1.jpg","39","restless",0.6,0.4,0.7,0.400806800755736,"true"
"image-keyboard-response",378,377374,"0.0-3.122-1.122","8cduqzasr7gj3lz",206,"55.csv","","null","resources/maskTrios/BBA1.jpg","null","",NA,NA,NA,NA,""
"image-keyboard-response",379,378581,"0.0-3.122-2.122","8cduqzasr7gj3lz",206,"55.csv","","null","resources/images/coin2.png","null","",NA,NA,NA,NA,""
"image-keyboard-response",380,378919,"0.0-3.123-0.123","8cduqzasr7gj3lz",206,"55.csv","","335.59999990463257","resources/trios/L2T4A2.jpg","39","restless",0.6,0.4,0.7,0.958164457095102,"false"
"image-keyboard-response",381,379326,"0.0-3.123-1.123","8cduqzasr7gj3lz",206,"55.csv","","null","resources/maskTrios/BBA2.jpg","null","",NA,NA,NA,NA,""
"image-keyboard-response",382,380533,"0.0-3.123-2.123","8cduqzasr7gj3lz",206,"55.csv","","null","resources/images/fishbone.png","null","",NA,NA,NA,NA,""
"image-keyboard-response",383,380775,"0.0-3.124-0.124","8cduqzasr7gj3lz",206,"55.csv","","240","resources/trios/L4T4A1.jpg","38","restless",0.6,0.4,0.7,0.85536218598729,"false"
"image-keyboard-response",384,381182,"0.0-3.124-1.124","8cduqzasr7gj3lz",206,"55.csv","","null","resources/maskTrios/BT4B.jpg","null","",NA,NA,NA,NA,""
"image-keyboard-response",385,382384,"0.0-3.124-2.124","8cduqzasr7gj3lz",206,"55.csv","","null","resources/images/fishbone.png","null","",NA,NA,NA,NA,""
"image-keyboard-response",386,382648,"0.0-3.125-0.125","8cduqzasr7gj3lz",206,"55.csv","","261.59999990463257","resources/trios/L2T1A1.jpg","37","restless",0.6,0.4,0.7,0.112176201601495,"true"
"image-keyboard-response",387,383055,"0.0-3.125-1.125","8cduqzasr7gj3lz",206,"55.csv","","null","resources/maskTrios/L2BB.jpg","null","",NA,NA,NA,NA,""
"image-keyboard-response",388,384261,"0.0-3.125-2.125","8cduqzasr7gj3lz",206,"55.csv","","null","resources/images/coin2.png","null","",NA,NA,NA,NA,""
"image-keyboard-response",389,384735,"0.0-3.126-0.126","8cduqzasr7gj3lz",206,"55.csv","","472.2999997138977","resources/trios/L2T4A1.jpg","37","restless",0.6,0.4,0.7,0.699324622613592,"false"
"image-keyboard-response",390,385142,"0.0-3.126-1.126","8cduqzasr7gj3lz",206,"55.csv","","null","resources/maskTrios/L2BB.jpg","null","",NA,NA,NA,NA,""
"image-keyboard-response",391,386349,"0.0-3.126-2.126","8cduqzasr7gj3lz",206,"55.csv","","null","resources/images/fishbone.png","null","",NA,NA,NA,NA,""
"image-keyboard-response",392,386666,"0.0-3.127-0.127","8cduqzasr7gj3lz",206,"55.csv","","315","resources/trios/L2T1A1.jpg","39","restless",0.6,0.4,0.7,0.361228592528251,"true"
"image-keyboard-response",393,387072,"0.0-3.127-1.127","8cduqzasr7gj3lz",206,"55.csv","","null","resources/maskTrios/BBA1.jpg","null","",NA,NA,NA,NA,""
"image-keyboard-response",394,388274,"0.0-3.127-2.127","8cduqzasr7gj3lz",206,"55.csv","","null","resources/images/coin2.png","null","",NA,NA,NA,NA,""
"image-keyboard-response",395,389013,"0.0-3.128-0.128","8cduqzasr7gj3lz",206,"55.csv","","736.2999997138977","resources/trios/L4T1A1.jpg","39","restless",0.6,0.4,0.6,0.793083418276423,"false"
"image-keyboard-response",396,389419,"0.0-3.128-1.128","8cduqzasr7gj3lz",206,"55.csv","","null","resources/maskTrios/BBA1.jpg","null","",NA,NA,NA,NA,""
"image-keyboard-response",397,390626,"0.0-3.128-2.128","8cduqzasr7gj3lz",206,"55.csv","","null","resources/images/fishbone.png","null","",NA,NA,NA,NA,""
"image-keyboard-response",398,390937,"0.0-3.129-0.129","8cduqzasr7gj3lz",206,"55.csv","","308.30000019073486","resources/trios/L2T4A2.jpg","38","restless",0.6,0.4,0.6,0.918771701574044,"false"
"image-keyboard-response",399,391343,"0.0-3.129-1.129","8cduqzasr7gj3lz",206,"55.csv","","null","resources/maskTrios/BT4B.jpg","null","",NA,NA,NA,NA,""
"image-keyboard-response",400,392546,"0.0-3.129-2.129","8cduqzasr7gj3lz",206,"55.csv","","null","resources/images/fishbone.png","null","",NA,NA,NA,NA,""
"image-keyboard-response",401,392848,"0.0-3.130-0.130","8cduqzasr7gj3lz",206,"55.csv","","300.7999997138977","resources/trios/L4T1A2.jpg","37","restless",0.6,0.5,0.6,0.346932164623394,"true"
"image-keyboard-response",402,393255,"0.0-3.130-1.130","8cduqzasr7gj3lz",206,"55.csv","","null","resources/maskTrios/L4BB.jpg","null","",NA,NA,NA,NA,""
"image-keyboard-response",403,394462,"0.0-3.130-2.130","8cduqzasr7gj3lz",206,"55.csv","","null","resources/images/coin2.png","null","",NA,NA,NA,NA,""
"image-keyboard-response",404,395262,"0.0-3.131-0.131","8cduqzasr7gj3lz",206,"55.csv","","798.5","resources/trios/L2T1A2.jpg","37","restless",0.6,0.5,0.6,0.668153551309355,"false"
"image-keyboard-response",405,395666,"0.0-3.131-1.131","8cduqzasr7gj3lz",206,"55.csv","","null","resources/maskTrios/L2BB.jpg","null","",NA,NA,NA,NA,""
"image-keyboard-response",406,396873,"0.0-3.131-2.131","8cduqzasr7gj3lz",206,"55.csv","","null","resources/images/fishbone.png","null","",NA,NA,NA,NA,""
"image-keyboard-response",407,397235,"0.0-3.132-0.132","8cduqzasr7gj3lz",206,"55.csv","","359.80000019073486","resources/trios/L2T4A1.jpg","39","restless",0.6,0.5,0.5,0.161838193950322,"true"
"image-keyboard-response",408,397642,"0.0-3.132-1.132","8cduqzasr7gj3lz",206,"55.csv","","null","resources/maskTrios/BBA1.jpg","null","",NA,NA,NA,NA,""
"image-keyboard-response",409,398845,"0.0-3.132-2.132","8cduqzasr7gj3lz",206,"55.csv","","null","resources/images/coin2.png","null","",NA,NA,NA,NA,""
"image-keyboard-response",410,399239,"0.0-3.133-0.133","8cduqzasr7gj3lz",206,"55.csv","","392.19999980926514","resources/trios/L2T4A1.jpg","39","restless",0.6,0.5,0.5,0.798969548813406,"false"
"image-keyboard-response",411,399643,"0.0-3.133-1.133","8cduqzasr7gj3lz",206,"55.csv","","null","resources/maskTrios/BBA1.jpg","null","",NA,NA,NA,NA,""
"image-keyboard-response",412,400850,"0.0-3.133-2.133","8cduqzasr7gj3lz",206,"55.csv","","null","resources/images/fishbone.png","null","",NA,NA,NA,NA,""
"image-keyboard-response",413,401194,"0.0-3.134-0.134","8cduqzasr7gj3lz",206,"55.csv","","342.09999990463257","resources/trios/L4T1A1.jpg","38","restless",0.5,0.5,0.5,0.728925112817349,"false"
"image-keyboard-response",414,401602,"0.0-3.134-1.134","8cduqzasr7gj3lz",206,"55.csv","","null","resources/maskTrios/BT1B.jpg","null","",NA,NA,NA,NA,""
"image-keyboard-response",415,402809,"0.0-3.134-2.134","8cduqzasr7gj3lz",206,"55.csv","","null","resources/images/fishbone.png","null","",NA,NA,NA,NA,""
"image-keyboard-response",416,403311,"0.0-3.135-0.135","8cduqzasr7gj3lz",206,"55.csv","","500.6000003814697","resources/trios/L2T4A2.jpg","37","restless",0.5,0.5,0.5,0.629921023759097,"false"
"image-keyboard-response",417,403719,"0.0-3.135-1.135","8cduqzasr7gj3lz",206,"55.csv","","null","resources/maskTrios/L2BB.jpg","null","",NA,NA,NA,NA,""
"image-keyboard-response",418,404923,"0.0-3.135-2.135","8cduqzasr7gj3lz",206,"55.csv","","null","resources/images/fishbone.png","null","",NA,NA,NA,NA,""
"image-keyboard-response",419,405579,"0.0-3.136-0.136","8cduqzasr7gj3lz",206,"55.csv","","653.6000003814697","resources/trios/L4T4A2.jpg","39","restless",0.6,0.5,0.5,0.439308494791991,"true"
"image-keyboard-response",420,405985,"0.0-3.136-1.136","8cduqzasr7gj3lz",206,"55.csv","","null","resources/maskTrios/BBA2.jpg","null","",NA,NA,NA,NA,""
"image-keyboard-response",421,407192,"0.0-3.136-2.136","8cduqzasr7gj3lz",206,"55.csv","","null","resources/images/coin2.png","null","",NA,NA,NA,NA,""
"image-keyboard-response",422,407704,"0.0-3.137-0.137","8cduqzasr7gj3lz",206,"55.csv","","509.90000009536743","resources/trios/L4T4A2.jpg","39","restless",0.6,0.5,0.5,0.361925147766194,"true"
"image-keyboard-response",423,408111,"0.0-3.137-1.137","8cduqzasr7gj3lz",206,"55.csv","","null","resources/maskTrios/BBA2.jpg","null","",NA,NA,NA,NA,""
"image-keyboard-response",424,409319,"0.0-3.137-2.137","8cduqzasr7gj3lz",206,"55.csv","","null","resources/images/coin2.png","null","",NA,NA,NA,NA,""
"image-keyboard-response",425,410313,"0.0-3.138-0.138","8cduqzasr7gj3lz",206,"55.csv","","992.3000001907349","resources/trios/L2T4A2.jpg","39","restless",0.6,0.5,0.4,0.0139229021423395,"true"
"image-keyboard-response",426,410720,"0.0-3.138-1.138","8cduqzasr7gj3lz",206,"55.csv","","null","resources/maskTrios/BBA2.jpg","null","",NA,NA,NA,NA,""
"image-keyboard-response",427,411928,"0.0-3.138-2.138","8cduqzasr7gj3lz",206,"55.csv","","null","resources/images/coin2.png","null","",NA,NA,NA,NA,""
"image-keyboard-response",428,413181,"0.0-3.139-0.139","8cduqzasr7gj3lz",206,"55.csv","","1250.6999998092651","resources/trios/L2T4A2.jpg","38","restless",0.6,0.5,0.4,0.0487215007044575,"true"
"image-keyboard-response",429,413588,"0.0-3.139-1.139","8cduqzasr7gj3lz",206,"55.csv","","null","resources/maskTrios/BT4B.jpg","null","",NA,NA,NA,NA,""
"image-keyboard-response",430,414791,"0.0-3.139-2.139","8cduqzasr7gj3lz",206,"55.csv","","null","resources/images/coin2.png","null","",NA,NA,NA,NA,""
"image-keyboard-response",431,422051,"0.0-3.140-0.140","8cduqzasr7gj3lz",206,"55.csv","","7257.900000095367","resources/trios/L4T4A2.jpg","38","restless",0.6,0.5,0.4,0.943615190543816,"false"
"image-keyboard-response",432,422458,"0.0-3.140-1.140","8cduqzasr7gj3lz",206,"55.csv","","null","resources/maskTrios/BT4B.jpg","null","",NA,NA,NA,NA,""
"image-keyboard-response",433,423662,"0.0-3.140-2.140","8cduqzasr7gj3lz",206,"55.csv","","null","resources/images/fishbone.png","null","",NA,NA,NA,NA,""
"image-keyboard-response",434,423795,"0.0-3.141-0.141","8cduqzasr7gj3lz",206,"55.csv","","131.69999980926514","resources/trios/L4T1A1.jpg","37","restless",0.6,0.5,0.4,0.440221067708389,"true"
"image-keyboard-response",435,424199,"0.0-3.141-1.141","8cduqzasr7gj3lz",206,"55.csv","","null","resources/maskTrios/L4BB.jpg","null","",NA,NA,NA,NA,""
"image-keyboard-response",436,425406,"0.0-3.141-2.141","8cduqzasr7gj3lz",206,"55.csv","","null","resources/images/coin2.png","null","",NA,NA,NA,NA,""
"image-keyboard-response",437,485876,"0.0-3.142-0.142","8cduqzasr7gj3lz",206,"55.csv","","60469.2000002861","resources/trios/L4T4A1.jpg","38","restless",0.6,0.5,0.3,0.146567152125277,"true"
"image-keyboard-response",438,486283,"0.0-3.142-1.142","8cduqzasr7gj3lz",206,"55.csv","","null","resources/maskTrios/BT4B.jpg","null","",NA,NA,NA,NA,""
"image-keyboard-response",439,487489,"0.0-3.142-2.142","8cduqzasr7gj3lz",206,"55.csv","","null","resources/images/coin2.png","null","",NA,NA,NA,NA,""
"image-keyboard-response",440,492308,"0.0-3.143-0.143","8cduqzasr7gj3lz",206,"55.csv","","4816.5","resources/trios/L4T4A1.jpg","38","restless",0.6,0.5,0.3,0.539162701367479,"false"
"image-keyboard-response",441,492715,"0.0-3.143-1.143","8cduqzasr7gj3lz",206,"55.csv","","null","resources/maskTrios/BT4B.jpg","null","",NA,NA,NA,NA,""
"image-keyboard-response",442,493919,"0.0-3.143-2.143","8cduqzasr7gj3lz",206,"55.csv","","null","resources/images/fishbone.png","null","",NA,NA,NA,NA,""
"image-keyboard-response",443,494244,"0.0-3.144-0.144","8cduqzasr7gj3lz",206,"55.csv","","323.09999990463257","resources/trios/L4T1A1.jpg","39","restless",0.6,0.5,0.3,0.444409561998007,"false"
"image-keyboard-response",444,494652,"0.0-3.144-1.144","8cduqzasr7gj3lz",206,"55.csv","","null","resources/maskTrios/BBA1.jpg","null","",NA,NA,NA,NA,""
"image-keyboard-response",445,495859,"0.0-3.144-2.144","8cduqzasr7gj3lz",206,"55.csv","","null","resources/images/fishbone.png","null","",NA,NA,NA,NA,""
"image-keyboard-response",446,496194,"0.0-3.145-0.145","8cduqzasr7gj3lz",206,"55.csv","","333.30000019073486","resources/trios/L4T1A2.jpg","37","restless",0.6,0.5,0.3,0.141152263546142,"true"
"image-keyboard-response",447,496601,"0.0-3.145-1.145","8cduqzasr7gj3lz",206,"55.csv","","null","resources/maskTrios/L4BB.jpg","null","",NA,NA,NA,NA,""
"image-keyboard-response",448,497809,"0.0-3.145-2.145","8cduqzasr7gj3lz",206,"55.csv","","null","resources/images/coin2.png","null","",NA,NA,NA,NA,""
"image-keyboard-response",449,498808,"0.0-3.146-0.146","8cduqzasr7gj3lz",206,"55.csv","","997.2999997138977","resources/trios/L4T4A2.jpg","37","restless",0.6,0.5,0.2,0.559620338659607,"true"
"image-keyboard-response",450,499216,"0.0-3.146-1.146","8cduqzasr7gj3lz",206,"55.csv","","null","resources/maskTrios/L4BB.jpg","null","",NA,NA,NA,NA,""
"image-keyboard-response",451,500423,"0.0-3.146-2.146","8cduqzasr7gj3lz",206,"55.csv","","null","resources/images/coin2.png","null","",NA,NA,NA,NA,""
"image-keyboard-response",452,502983,"0.0-3.147-0.147","8cduqzasr7gj3lz",206,"55.csv","","2558.1000003814697","resources/trios/L4T1A2.jpg","37","restless",0.6,0.5,0.2,0.584994713894585,"true"
"image-keyboard-response",453,503390,"0.0-3.147-1.147","8cduqzasr7gj3lz",206,"55.csv","","null","resources/maskTrios/L4BB.jpg","null","",NA,NA,NA,NA,""
"image-keyboard-response",454,504597,"0.0-3.147-2.147","8cduqzasr7gj3lz",206,"55.csv","","null","resources/images/coin2.png","null","",NA,NA,NA,NA,""
"image-keyboard-response",455,506402,"0.0-3.148-0.148","8cduqzasr7gj3lz",206,"55.csv","","1802.5999999046326","resources/trios/L2T1A2.jpg","37","restless",0.6,0.5,0.1,0.0752131996554759,"true"
"image-keyboard-response",456,506805,"0.0-3.148-1.148","8cduqzasr7gj3lz",206,"55.csv","","null","resources/maskTrios/L2BB.jpg","null","",NA,NA,NA,NA,""
"image-keyboard-response",457,508012,"0.0-3.148-2.148","8cduqzasr7gj3lz",206,"55.csv","","null","resources/images/coin2.png","null","",NA,NA,NA,NA,""
"image-keyboard-response",458,512397,"0.0-3.149-0.149","8cduqzasr7gj3lz",206,"55.csv","","4382.099999904633","resources/trios/L2T4A1.jpg","37","restless",0.6,0.5,0.1,0.935341398842811,"false"
"image-keyboard-response",459,512799,"0.0-3.149-1.149","8cduqzasr7gj3lz",206,"55.csv","","null","resources/maskTrios/L2BB.jpg","null","",NA,NA,NA,NA,""
"image-keyboard-response",460,514001,"0.0-3.149-2.149","8cduqzasr7gj3lz",206,"55.csv","","null","resources/images/fishbone.png","null","",NA,NA,NA,NA,""
"image-keyboard-response",461,514004,"0.0-3.150-0.150","8cduqzasr7gj3lz",206,"55.csv","","0.40000009536743164","resources/trios/L2T1A1.jpg","39","restless",0.6,0.5,0.2,0.442947316407973,"false"
"image-keyboard-response",462,514410,"0.0-3.150-1.150","8cduqzasr7gj3lz",206,"55.csv","","null","resources/maskTrios/BBA1.jpg","null","",NA,NA,NA,NA,""
"image-keyboard-response",463,515617,"0.0-3.150-2.150","8cduqzasr7gj3lz",206,"55.csv","","null","resources/images/fishbone.png","null","",NA,NA,NA,NA,""
"image-keyboard-response",464,519970,"0.0-3.151-0.151","8cduqzasr7gj3lz",206,"55.csv","","4351.099999904633","resources/trios/L2T4A2.jpg","38","restless",0.6,0.5,0.2,0.047311776374201,"true"
"image-keyboard-response",465,520378,"0.0-3.151-1.151","8cduqzasr7gj3lz",206,"55.csv","","null","resources/maskTrios/BT4B.jpg","null","",NA,NA,NA,NA,""
"image-keyboard-response",466,521580,"0.0-3.151-2.151","8cduqzasr7gj3lz",206,"55.csv","","null","resources/images/coin2.png","null","",NA,NA,NA,NA,""
"image-keyboard-response",467,524138,"0.0-3.152-0.152","8cduqzasr7gj3lz",206,"55.csv","","2555.4000000953674","resources/trios/L4T4A2.jpg","37","restless",0.6,0.5,0.2,0.390580942400563,"true"
"image-keyboard-response",468,524542,"0.0-3.152-1.152","8cduqzasr7gj3lz",206,"55.csv","","null","resources/maskTrios/L4BB.jpg","null","",NA,NA,NA,NA,""
"image-keyboard-response",469,525749,"0.0-3.152-2.152","8cduqzasr7gj3lz",206,"55.csv","","null","resources/images/coin2.png","null","",NA,NA,NA,NA,""
"image-keyboard-response",470,529743,"0.0-3.153-0.153","8cduqzasr7gj3lz",206,"55.csv","","3991.699999809265","resources/trios/L2T4A2.jpg","37","restless",0.6,0.5,0.2,0.311189974799821,"true"
"image-keyboard-response",471,530150,"0.0-3.153-1.153","8cduqzasr7gj3lz",206,"55.csv","","null","resources/maskTrios/L2BB.jpg","null","",NA,NA,NA,NA,""
"image-keyboard-response",472,531356,"0.0-3.153-2.153","8cduqzasr7gj3lz",206,"55.csv","","null","resources/images/coin2.png","null","",NA,NA,NA,NA,""
"image-keyboard-response",473,541747,"0.0-3.154-0.154","8cduqzasr7gj3lz",206,"55.csv","","10390.099999904633","resources/trios/L2T4A2.jpg","37","restless",0.6,0.5,0.2,0.994975707548404,"false"
"image-keyboard-response",474,542151,"0.0-3.154-1.154","8cduqzasr7gj3lz",206,"55.csv","","null","resources/maskTrios/L2BB.jpg","null","",NA,NA,NA,NA,""
"image-keyboard-response",475,543357,"0.0-3.154-2.154","8cduqzasr7gj3lz",206,"55.csv","","null","resources/images/fishbone.png","null","",NA,NA,NA,NA,""
"image-keyboard-response",476,727651,"0.0-3.155-0.155","8cduqzasr7gj3lz",206,"55.csv","","184295.39999961853","resources/trios/L2T1A2.jpg","39","restless",0.6,0.5,0.2,0.81278513848116,"false"
"image-keyboard-response",477,728059,"0.0-3.155-1.155","8cduqzasr7gj3lz",206,"55.csv","","null","resources/maskTrios/BBA2.jpg","null","",NA,NA,NA,NA,""
"image-keyboard-response",478,729266,"0.0-3.155-2.155","8cduqzasr7gj3lz",206,"55.csv","","null","resources/images/fishbone.png","null","",NA,NA,NA,NA,""
"image-keyboard-response",479,729306,"0.0-3.156-0.156","8cduqzasr7gj3lz",206,"55.csv","","37.700000286102295","resources/trios/L4T1A1.jpg","38","restless",0.6,0.5,0.2,0.00235816726766447,"true"
"image-keyboard-response",480,729712,"0.0-3.156-1.156","8cduqzasr7gj3lz",206,"55.csv","","null","resources/maskTrios/BT1B.jpg","null","",NA,NA,NA,NA,""
"image-keyboard-response",481,730919,"0.0-3.156-2.156","8cduqzasr7gj3lz",206,"55.csv","","null","resources/images/coin2.png","null","",NA,NA,NA,NA,""
"image-keyboard-response",482,731592,"0.0-3.157-0.157","8cduqzasr7gj3lz",206,"55.csv","","670.5","resources/trios/L4T1A1.jpg","38","restless",0.6,0.5,0.2,0.978562904422154,"false"
"image-keyboard-response",483,732000,"0.0-3.157-1.157","8cduqzasr7gj3lz",206,"55.csv","","null","resources/maskTrios/BT1B.jpg","null","",NA,NA,NA,NA,""
"image-keyboard-response",484,733207,"0.0-3.157-2.157","8cduqzasr7gj3lz",206,"55.csv","","null","resources/images/fishbone.png","null","",NA,NA,NA,NA,""
"image-keyboard-response",485,734410,"0.0-3.158-0.158","8cduqzasr7gj3lz",206,"55.csv","","1201.0999999046326","resources/trios/L2T4A2.jpg","38","restless",0.6,0.5,0.2,0.841560920360283,"false"
"image-keyboard-response",486,734816,"0.0-3.158-1.158","8cduqzasr7gj3lz",206,"55.csv","","null","resources/maskTrios/BT4B.jpg","null","",NA,NA,NA,NA,""
"image-keyboard-response",487,736023,"0.0-3.158-2.158","8cduqzasr7gj3lz",206,"55.csv","","null","resources/images/fishbone.png","null","",NA,NA,NA,NA,""
"image-keyboard-response",488,736234,"0.0-3.159-0.159","8cduqzasr7gj3lz",206,"55.csv","","209","resources/trios/L4T4A2.jpg","38","restless",0.6,0.5,0.2,0.993662976719872,"false"
"image-keyboard-response",489,736640,"0.0-3.159-1.159","8cduqzasr7gj3lz",206,"55.csv","","null","resources/maskTrios/BT4B.jpg","null","",NA,NA,NA,NA,""
"image-keyboard-response",490,737847,"0.0-3.159-2.159","8cduqzasr7gj3lz",206,"55.csv","","null","resources/images/fishbone.png","null","",NA,NA,NA,NA,""
"image-keyboard-response",491,738200,"0.0-3.160-0.160","8cduqzasr7gj3lz",206,"55.csv","","350.59999990463257","resources/trios/L4T1A1.jpg","38","restless",0.6,0.5,0.2,0.0954167389155245,"true"
"image-keyboard-response",492,738603,"0.0-3.160-1.160","8cduqzasr7gj3lz",206,"55.csv","","null","resources/maskTrios/BT1B.jpg","null","",NA,NA,NA,NA,""
"image-keyboard-response",493,739811,"0.0-3.160-2.160","8cduqzasr7gj3lz",206,"55.csv","","null","resources/images/coin2.png","null","",NA,NA,NA,NA,""
"image-keyboard-response",494,739821,"0.0-3.161-0.161","8cduqzasr7gj3lz",206,"55.csv","","8.599999904632568","resources/trios/L2T1A2.jpg","38","restless",0.6,0.5,0.3,0.202716694915208,"true"
"image-keyboard-response",495,740228,"0.0-3.161-1.161","8cduqzasr7gj3lz",206,"55.csv","","null","resources/maskTrios/BT1B.jpg","null","",NA,NA,NA,NA,""
"image-keyboard-response",496,741430,"0.0-3.161-2.161","8cduqzasr7gj3lz",206,"55.csv","","null","resources/images/coin2.png","null","",NA,NA,NA,NA,""
"image-keyboard-response",497,741593,"0.0-3.162-0.162","8cduqzasr7gj3lz",206,"55.csv","","160.19999980926514","resources/trios/L4T1A2.jpg","38","restless",0.5,0.4,0.3,0.905876105527182,"false"
"image-keyboard-response",498,741996,"0.0-3.162-1.162","8cduqzasr7gj3lz",206,"55.csv","","null","resources/maskTrios/BT1B.jpg","null","",NA,NA,NA,NA,""
"image-keyboard-response",499,743199,"0.0-3.162-2.162","8cduqzasr7gj3lz",206,"55.csv","","null","resources/images/fishbone.png","null","",NA,NA,NA,NA,""
"image-keyboard-response",500,743351,"0.0-3.163-0.163","8cduqzasr7gj3lz",206,"55.csv","","149.69999980926514","resources/trios/L2T4A2.jpg","38","restless",0.5,0.4,0.4,0.968007036521048,"false"
"image-keyboard-response",501,743759,"0.0-3.163-1.163","8cduqzasr7gj3lz",206,"55.csv","","null","resources/maskTrios/BT4B.jpg","null","",NA,NA,NA,NA,""
"image-keyboard-response",502,744964,"0.0-3.163-2.163","8cduqzasr7gj3lz",206,"55.csv","","null","resources/images/fishbone.png","null","",NA,NA,NA,NA,""
"image-keyboard-response",503,745020,"0.0-3.164-0.164","8cduqzasr7gj3lz",206,"55.csv","","53.59999990463257","resources/trios/L2T1A1.jpg","38","restless",0.5,0.4,0.4,0.969591015108114,"false"
"image-keyboard-response",504,745427,"0.0-3.164-1.164","8cduqzasr7gj3lz",206,"55.csv","","null","resources/maskTrios/BT1B.jpg","null","",NA,NA,NA,NA,""
"image-keyboard-response",505,746634,"0.0-3.164-2.164","8cduqzasr7gj3lz",206,"55.csv","","null","resources/images/fishbone.png","null","",NA,NA,NA,NA,""
"image-keyboard-response",506,746752,"0.0-3.165-0.165","8cduqzasr7gj3lz",206,"55.csv","","116.90000009536743","resources/trios/L4T1A2.jpg","37","restless",0.5,0.4,0.4,0.694129719909599,"false"
"image-keyboard-response",507,747154,"0.0-3.165-1.165","8cduqzasr7gj3lz",206,"55.csv","","null","resources/maskTrios/L4BB.jpg","null","",NA,NA,NA,NA,""
"image-keyboard-response",508,748360,"0.0-3.165-2.165","8cduqzasr7gj3lz",206,"55.csv","","null","resources/images/fishbone.png","null","",NA,NA,NA,NA,""
"image-keyboard-response",509,748610,"0.0-3.166-0.166","8cduqzasr7gj3lz",206,"55.csv","","248.2000002861023","resources/trios/L2T4A2.jpg","37","restless",0.5,0.4,0.4,0.311134509961233,"true"
"image-keyboard-response",510,749017,"0.0-3.166-1.166","8cduqzasr7gj3lz",206,"55.csv","","null","resources/maskTrios/L2BB.jpg","null","",NA,NA,NA,NA,""
"image-keyboard-response",511,750225,"0.0-3.166-2.166","8cduqzasr7gj3lz",206,"55.csv","","null","resources/images/coin2.png","null","",NA,NA,NA,NA,""
"image-keyboard-response",512,750268,"0.0-3.167-0.167","8cduqzasr7gj3lz",206,"55.csv","","40.30000019073486","resources/trios/L4T4A2.jpg","37","restless",0.5,0.4,0.4,0.268032317897414,"true"
"image-keyboard-response",513,750675,"0.0-3.167-1.167","8cduqzasr7gj3lz",206,"55.csv","","null","resources/maskTrios/L4BB.jpg","null","",NA,NA,NA,NA,""
"image-keyboard-response",514,751878,"0.0-3.167-2.167","8cduqzasr7gj3lz",206,"55.csv","","null","resources/images/coin2.png","null","",NA,NA,NA,NA,""
"image-keyboard-response",515,752485,"0.0-3.168-0.168","8cduqzasr7gj3lz",206,"55.csv","","604.2000002861023","resources/trios/L2T1A1.jpg","37","restless",0.5,0.4,0.4,0.977780015200509,"false"
"image-keyboard-response",516,752888,"0.0-3.168-1.168","8cduqzasr7gj3lz",206,"55.csv","","null","resources/maskTrios/L2BB.jpg","null","",NA,NA,NA,NA,""
"image-keyboard-response",517,754095,"0.0-3.168-2.168","8cduqzasr7gj3lz",206,"55.csv","","null","resources/images/fishbone.png","null","",NA,NA,NA,NA,""
"image-keyboard-response",518,756486,"0.0-3.169-0.169","8cduqzasr7gj3lz",206,"55.csv","","2388.3999996185303","resources/trios/L4T1A1.jpg","37","restless",0.5,0.4,0.4,0.914585766900701,"false"
"image-keyboard-response",519,756893,"0.0-3.169-1.169","8cduqzasr7gj3lz",206,"55.csv","","null","resources/maskTrios/L4BB.jpg","null","",NA,NA,NA,NA,""
"image-keyboard-response",520,758099,"0.0-3.169-2.169","8cduqzasr7gj3lz",206,"55.csv","","null","resources/images/fishbone.png","null","",NA,NA,NA,NA,""
"image-keyboard-response",521,758559,"0.0-3.170-0.170","8cduqzasr7gj3lz",206,"55.csv","","457.69999980926514","resources/trios/L2T4A2.jpg","37","restless",0.5,0.4,0.4,0.1870960383469,"true"
"image-keyboard-response",522,758965,"0.0-3.170-1.170","8cduqzasr7gj3lz",206,"55.csv","","null","resources/maskTrios/L2BB.jpg","null","",NA,NA,NA,NA,""
"image-keyboard-response",523,760172,"0.0-3.170-2.170","8cduqzasr7gj3lz",206,"55.csv","","null","resources/images/coin2.png","null","",NA,NA,NA,NA,""
"image-keyboard-response",524,762398,"0.0-3.171-0.171","8cduqzasr7gj3lz",206,"55.csv","","2223.2999997138977","resources/trios/L2T4A1.jpg","37","restless",0.6,0.4,0.4,0.793855704446796,"false"
"image-keyboard-response",525,762802,"0.0-3.171-1.171","8cduqzasr7gj3lz",206,"55.csv","","null","resources/maskTrios/L2BB.jpg","null","",NA,NA,NA,NA,""
"image-keyboard-response",526,764010,"0.0-3.171-2.171","8cduqzasr7gj3lz",206,"55.csv","","null","resources/images/fishbone.png","null","",NA,NA,NA,NA,""
"image-keyboard-response",527,769822,"0.0-3.172-0.172","8cduqzasr7gj3lz",206,"55.csv","","5810.400000095367","resources/trios/L2T1A2.jpg","37","restless",0.6,0.4,0.4,0.000415692233032505,"true"
"image-keyboard-response",528,770229,"0.0-3.172-1.172","8cduqzasr7gj3lz",206,"55.csv","","null","resources/maskTrios/L2BB.jpg","null","",NA,NA,NA,NA,""
"image-keyboard-response",529,771432,"0.0-3.172-2.172","8cduqzasr7gj3lz",206,"55.csv","","null","resources/images/coin2.png","null","",NA,NA,NA,NA,""
"image-keyboard-response",530,781304,"0.0-3.173-0.173","8cduqzasr7gj3lz",206,"55.csv","","9869.599999904633","resources/trios/L4T1A1.jpg","37","restless",0.6,0.4,0.4,0.115126544775998,"true"
"image-keyboard-response",531,781710,"0.0-3.173-1.173","8cduqzasr7gj3lz",206,"55.csv","","null","resources/maskTrios/L4BB.jpg","null","",NA,NA,NA,NA,""
"image-keyboard-response",532,782914,"0.0-3.173-2.173","8cduqzasr7gj3lz",206,"55.csv","","null","resources/images/coin2.png","null","",NA,NA,NA,NA,""
"image-keyboard-response",533,791019,"0.0-3.174-0.174","8cduqzasr7gj3lz",206,"55.csv","","8102.599999904633","resources/trios/L4T1A1.jpg","37","restless",0.6,0.4,0.4,0.0685058094372692,"true"
"image-keyboard-response",534,791426,"0.0-3.174-1.174","8cduqzasr7gj3lz",206,"55.csv","","null","resources/maskTrios/L4BB.jpg","null","",NA,NA,NA,NA,""
"image-keyboard-response",535,792633,"0.0-3.174-2.174","8cduqzasr7gj3lz",206,"55.csv","","null","resources/images/coin2.png","null","",NA,NA,NA,NA,""
"image-keyboard-response",536,799953,"0.0-3.175-0.175","8cduqzasr7gj3lz",206,"55.csv","","7317.599999904633","resources/trios/L2T4A1.jpg","37","restless",0.6,0.4,0.4,0.981581721637613,"false"
"image-keyboard-response",537,800356,"0.0-3.175-1.175","8cduqzasr7gj3lz",206,"55.csv","","null","resources/maskTrios/L2BB.jpg","null","",NA,NA,NA,NA,""
"image-keyboard-response",538,801558,"0.0-3.175-2.175","8cduqzasr7gj3lz",206,"55.csv","","null","resources/images/fishbone.png","null","",NA,NA,NA,NA,""
"image-keyboard-response",539,802048,"0.0-3.176-0.176","8cduqzasr7gj3lz",206,"55.csv","","488.09999990463257","resources/trios/L2T4A2.jpg","37","restless",0.6,0.4,0.4,0.323349023288914,"true"
"image-keyboard-response",540,802455,"0.0-3.176-1.176","8cduqzasr7gj3lz",206,"55.csv","","null","resources/maskTrios/L2BB.jpg","null","",NA,NA,NA,NA,""
"image-keyboard-response",541,803660,"0.0-3.176-2.176","8cduqzasr7gj3lz",206,"55.csv","","null","resources/images/coin2.png","null","",NA,NA,NA,NA,""
"image-keyboard-response",542,808778,"0.0-3.177-0.177","8cduqzasr7gj3lz",206,"55.csv","","5116","resources/trios/L4T4A2.jpg","37","restless",0.6,0.4,0.4,0.948263962043853,"false"
"image-keyboard-response",543,809186,"0.0-3.177-1.177","8cduqzasr7gj3lz",206,"55.csv","","null","resources/maskTrios/L4BB.jpg","null","",NA,NA,NA,NA,""
"image-keyboard-response",544,810388,"0.0-3.177-2.177","8cduqzasr7gj3lz",206,"55.csv","","null","resources/images/fishbone.png","null","",NA,NA,NA,NA,""
"image-keyboard-response",545,810553,"0.0-3.178-0.178","8cduqzasr7gj3lz",206,"55.csv","","163.40000009536743","resources/trios/L4T1A1.jpg","38","restless",0.6,0.3,0.4,0.730458045368029,"false"
"image-keyboard-response",546,810958,"0.0-3.178-1.178","8cduqzasr7gj3lz",206,"55.csv","","null","resources/maskTrios/BT1B.jpg","null","",NA,NA,NA,NA,""
"image-keyboard-response",547,812161,"0.0-3.178-2.178","8cduqzasr7gj3lz",206,"55.csv","","null","resources/images/fishbone.png","null","",NA,NA,NA,NA,""
"image-keyboard-response",548,812584,"0.0-3.179-0.179","8cduqzasr7gj3lz",206,"55.csv","","420.5","resources/trios/L4T4A1.jpg","38","restless",0.6,0.3,0.3,0.88260119895951,"false"
"image-keyboard-response",549,812986,"0.0-3.179-1.179","8cduqzasr7gj3lz",206,"55.csv","","null","resources/maskTrios/BT4B.jpg","null","",NA,NA,NA,NA,""
"image-keyboard-response",550,814190,"0.0-3.179-2.179","8cduqzasr7gj3lz",206,"55.csv","","null","resources/images/fishbone.png","null","",NA,NA,NA,NA,""
"image-keyboard-response",551,821150,"0.0-3.180-0.180","8cduqzasr7gj3lz",206,"55.csv","","6958.200000286102","resources/trios/L4T4A1.jpg","39","restless",0.6,0.3,0.3,0.84560919996474,"false"
"image-keyboard-response",552,821558,"0.0-3.180-1.180","8cduqzasr7gj3lz",206,"55.csv","","null","resources/maskTrios/BBA1.jpg","null","",NA,NA,NA,NA,""
"image-keyboard-response",553,822764,"0.0-3.180-2.180","8cduqzasr7gj3lz",206,"55.csv","","null","resources/images/fishbone.png","null","",NA,NA,NA,NA,""
"image-keyboard-response",554,822827,"0.0-3.181-0.181","8cduqzasr7gj3lz",206,"55.csv","","60.30000019073486","resources/trios/L4T4A2.jpg","39","restless",0.6,0.2,0.3,0.61036495546125,"false"
"image-keyboard-response",555,823231,"0.0-3.181-1.181","8cduqzasr7gj3lz",206,"55.csv","","null","resources/maskTrios/BBA2.jpg","null","",NA,NA,NA,NA,""
"image-keyboard-response",556,824435,"0.0-3.181-2.181","8cduqzasr7gj3lz",206,"55.csv","","null","resources/images/fishbone.png","null","",NA,NA,NA,NA,""
"image-keyboard-response",557,824629,"0.0-3.182-0.182","8cduqzasr7gj3lz",206,"55.csv","","192","resources/trios/L4T1A1.jpg","39","restless",0.6,0.2,0.3,0.542491364301099,"false"
"image-keyboard-response",558,825035,"0.0-3.182-1.182","8cduqzasr7gj3lz",206,"55.csv","","null","resources/maskTrios/BBA1.jpg","null","",NA,NA,NA,NA,""
"image-keyboard-response",559,826242,"0.0-3.182-2.182","8cduqzasr7gj3lz",206,"55.csv","","null","resources/images/fishbone.png","null","",NA,NA,NA,NA,""
"image-keyboard-response",560,829345,"0.0-3.183-0.183","8cduqzasr7gj3lz",206,"55.csv","","3100.5","resources/trios/L2T4A2.jpg","39","restless",0.6,0.2,0.4,0.612099354845404,"false"
"image-keyboard-response",561,829747,"0.0-3.183-1.183","8cduqzasr7gj3lz",206,"55.csv","","null","resources/maskTrios/BBA2.jpg","null","",NA,NA,NA,NA,""
"image-keyboard-response",562,830949,"0.0-3.183-2.183","8cduqzasr7gj3lz",206,"55.csv","","null","resources/images/fishbone.png","null","",NA,NA,NA,NA,""
"image-keyboard-response",563,836908,"0.0-3.184-0.184","8cduqzasr7gj3lz",206,"55.csv","","5956.599999904633","resources/trios/L4T1A1.jpg","39","restless",0.6,0.2,0.4,0.749010361693759,"false"
"image-keyboard-response",564,837315,"0.0-3.184-1.184","8cduqzasr7gj3lz",206,"55.csv","","null","resources/maskTrios/BBA1.jpg","null","",NA,NA,NA,NA,""
"image-keyboard-response",565,838518,"0.0-3.184-2.184","8cduqzasr7gj3lz",206,"55.csv","","null","resources/images/fishbone.png","null","",NA,NA,NA,NA,""
"image-keyboard-response",566,838703,"0.0-3.185-0.185","8cduqzasr7gj3lz",206,"55.csv","","182.7999997138977","resources/trios/L2T1A1.jpg","38","restless",0.6,0.1,0.4,0.804692810070032,"false"
"image-keyboard-response",567,839109,"0.0-3.185-1.185","8cduqzasr7gj3lz",206,"55.csv","","null","resources/maskTrios/BT1B.jpg","null","",NA,NA,NA,NA,""
"image-keyboard-response",568,840316,"0.0-3.185-2.185","8cduqzasr7gj3lz",206,"55.csv","","null","resources/images/fishbone.png","null","",NA,NA,NA,NA,""
"image-keyboard-response",569,841978,"0.0-3.186-0.186","8cduqzasr7gj3lz",206,"55.csv","","1660.1000003814697","resources/trios/L2T1A1.jpg","38","restless",0.7,0.1,0.4,0.52215953531418,"false"
"image-keyboard-response",570,842382,"0.0-3.186-1.186","8cduqzasr7gj3lz",206,"55.csv","","null","resources/maskTrios/BT1B.jpg","null","",NA,NA,NA,NA,""
"image-keyboard-response",571,843589,"0.0-3.186-2.186","8cduqzasr7gj3lz",206,"55.csv","","null","resources/images/fishbone.png","null","",NA,NA,NA,NA,""
"image-keyboard-response",572,846054,"0.0-3.187-0.187","8cduqzasr7gj3lz",206,"55.csv","","2462.7999997138977","resources/trios/L2T4A2.jpg","37","restless",0.7,0.1,0.4,0.490195562553776,"true"
"image-keyboard-response",573,846462,"0.0-3.187-1.187","8cduqzasr7gj3lz",206,"55.csv","","null","resources/maskTrios/L2BB.jpg","null","",NA,NA,NA,NA,""
"image-keyboard-response",574,847667,"0.0-3.187-2.187","8cduqzasr7gj3lz",206,"55.csv","","null","resources/images/coin2.png","null","",NA,NA,NA,NA,""
"image-keyboard-response",575,848099,"0.0-3.188-0.188","8cduqzasr7gj3lz",206,"55.csv","","429.7000002861023","resources/trios/L4T4A1.jpg","37","restless",0.7,0.2,0.4,0.354450585655999,"true"
"image-keyboard-response",576,848507,"0.0-3.188-1.188","8cduqzasr7gj3lz",206,"55.csv","","null","resources/maskTrios/L4BB.jpg","null","",NA,NA,NA,NA,""
"image-keyboard-response",577,849714,"0.0-3.188-2.188","8cduqzasr7gj3lz",206,"55.csv","","null","resources/images/coin2.png","null","",NA,NA,NA,NA,""
"image-keyboard-response",578,858090,"0.0-3.189-0.189","8cduqzasr7gj3lz",206,"55.csv","","8373.800000190735","resources/trios/L2T4A1.jpg","37","restless",0.7,0.2,0.4,0.654662530181082,"true"
"image-keyboard-response",579,858497,"0.0-3.189-1.189","8cduqzasr7gj3lz",206,"55.csv","","null","resources/maskTrios/L2BB.jpg","null","",NA,NA,NA,NA,""
"image-keyboard-response",580,859704,"0.0-3.189-2.189","8cduqzasr7gj3lz",206,"55.csv","","null","resources/images/coin2.png","null","",NA,NA,NA,NA,""
"image-keyboard-response",581,862533,"0.0-3.190-0.190","8cduqzasr7gj3lz",206,"55.csv","","2826.5","resources/trios/L2T1A2.jpg","37","restless",0.7,0.3,0.4,0.627629965879709,"true"
"image-keyboard-response",582,862936,"0.0-3.190-1.190","8cduqzasr7gj3lz",206,"55.csv","","null","resources/maskTrios/L2BB.jpg","null","",NA,NA,NA,NA,""
"image-keyboard-response",583,864143,"0.0-3.190-2.190","8cduqzasr7gj3lz",206,"55.csv","","null","resources/images/coin2.png","null","",NA,NA,NA,NA,""
"image-keyboard-response",584,864957,"0.0-3.191-0.191","8cduqzasr7gj3lz",206,"55.csv","","810.1000003814697","resources/trios/L4T4A1.jpg","37","restless",0.6,0.3,0.4,0.894775559351163,"false"
"image-keyboard-response",585,865364,"0.0-3.191-1.191","8cduqzasr7gj3lz",206,"55.csv","","null","resources/maskTrios/L4BB.jpg","null","",NA,NA,NA,NA,""
"image-keyboard-response",586,866570,"0.0-3.191-2.191","8cduqzasr7gj3lz",206,"55.csv","","null","resources/images/fishbone.png","null","",NA,NA,NA,NA,""
"image-keyboard-response",587,866578,"0.0-3.192-0.192","8cduqzasr7gj3lz",206,"55.csv","","4.900000095367432","resources/trios/L2T1A1.jpg","37","restless",0.5,0.3,0.4,0.35623542763628,"true"
"image-keyboard-response",588,866981,"0.0-3.192-1.192","8cduqzasr7gj3lz",206,"55.csv","","null","resources/maskTrios/L2BB.jpg","null","",NA,NA,NA,NA,""
"image-keyboard-response",589,868187,"0.0-3.192-2.192","8cduqzasr7gj3lz",206,"55.csv","","null","resources/images/coin2.png","null","",NA,NA,NA,NA,""
"image-keyboard-response",590,869278,"0.0-3.193-0.193","8cduqzasr7gj3lz",206,"55.csv","","1088.6999998092651","resources/trios/L4T4A2.jpg","37","restless",0.5,0.3,0.4,0.228565511352268,"true"
"image-keyboard-response",591,869684,"0.0-3.193-1.193","8cduqzasr7gj3lz",206,"55.csv","","null","resources/maskTrios/L4BB.jpg","null","",NA,NA,NA,NA,""
"image-keyboard-response",592,870892,"0.0-3.193-2.193","8cduqzasr7gj3lz",206,"55.csv","","null","resources/images/coin2.png","null","",NA,NA,NA,NA,""
"image-keyboard-response",593,872771,"0.0-3.194-0.194","8cduqzasr7gj3lz",206,"55.csv","","1877.2999997138977","resources/trios/L4T4A2.jpg","37","restless",0.4,0.3,0.4,0.596689313135392,"false"
"image-keyboard-response",594,873175,"0.0-3.194-1.194","8cduqzasr7gj3lz",206,"55.csv","","null","resources/maskTrios/L4BB.jpg","null","",NA,NA,NA,NA,""
"image-keyboard-response",595,874381,"0.0-3.194-2.194","8cduqzasr7gj3lz",206,"55.csv","","null","resources/images/fishbone.png","null","",NA,NA,NA,NA,""
"image-keyboard-response",596,874916,"0.0-3.195-0.195","8cduqzasr7gj3lz",206,"55.csv","","532.0999999046326","resources/trios/L2T4A1.jpg","38","restless",0.4,0.3,0.4,0.233247291555248,"true"
"image-keyboard-response",597,875324,"0.0-3.195-1.195","8cduqzasr7gj3lz",206,"55.csv","","null","resources/maskTrios/BT4B.jpg","null","",NA,NA,NA,NA,""
"image-keyboard-response",598,876531,"0.0-3.195-2.195","8cduqzasr7gj3lz",206,"55.csv","","null","resources/images/coin2.png","null","",NA,NA,NA,NA,""
"image-keyboard-response",599,877377,"0.0-3.196-0.196","8cduqzasr7gj3lz",206,"55.csv","","844.4000000953674","resources/trios/L4T4A1.jpg","38","restless",0.4,0.3,0.4,0.359154858869696,"false"
"image-keyboard-response",600,877784,"0.0-3.196-1.196","8cduqzasr7gj3lz",206,"55.csv","","null","resources/maskTrios/BT4B.jpg","null","",NA,NA,NA,NA,""
"image-keyboard-response",601,878991,"0.0-3.196-2.196","8cduqzasr7gj3lz",206,"55.csv","","null","resources/images/fishbone.png","null","",NA,NA,NA,NA,""
"image-keyboard-response",602,882918,"0.0-3.197-0.197","8cduqzasr7gj3lz",206,"55.csv","","3924.5999999046326","resources/trios/L4T4A1.jpg","39","restless",0.4,0.3,0.5,0.831779322547802,"false"
"image-keyboard-response",603,883320,"0.0-3.197-1.197","8cduqzasr7gj3lz",206,"55.csv","","null","resources/maskTrios/BBA1.jpg","null","",NA,NA,NA,NA,""
"image-keyboard-response",604,884526,"0.0-3.197-2.197","8cduqzasr7gj3lz",206,"55.csv","","null","resources/images/fishbone.png","null","",NA,NA,NA,NA,""
"image-keyboard-response",605,886910,"0.0-3.198-0.198","8cduqzasr7gj3lz",206,"55.csv","","2381.7999997138977","resources/trios/L2T1A2.jpg","39","restless",0.4,0.3,0.5,0.729635684220066,"false"
"image-keyboard-response",606,887316,"0.0-3.198-1.198","8cduqzasr7gj3lz",206,"55.csv","","null","resources/maskTrios/BBA2.jpg","null","",NA,NA,NA,NA,""
"image-keyboard-response",607,888519,"0.0-3.198-2.198","8cduqzasr7gj3lz",206,"55.csv","","null","resources/images/fishbone.png","null","",NA,NA,NA,NA,""
"image-keyboard-response",608,891807,"0.0-3.199-0.199","8cduqzasr7gj3lz",206,"55.csv","","3285.800000190735","resources/trios/L2T4A2.jpg","38","restless",0.4,0.3,0.6,0.62364967286211,"false"
"image-keyboard-response",609,892213,"0.0-3.199-1.199","8cduqzasr7gj3lz",206,"55.csv","","null","resources/maskTrios/BT4B.jpg","null","",NA,NA,NA,NA,""
