"trial_type","trial_index","time_elapsed","internal_node_id","subject","participantCode","walkNumber","success","rt","stimulus","key_press","test_part","leftProb","midProb","rightProb","generatedNum","correct"
"pavlovia",0,978,"0.0-0.0","ugakguc6o78q64x",240,"118.csv","","","","","",NA,NA,NA,NA,""
"fullscreen",1,4632,"0.0-1.0","ugakguc6o78q64x",240,"118.csv","true","","","","",NA,NA,NA,NA,""
"html-keyboard-response",2,16077,"0.0-2.0-0.0","ugakguc6o78q64x",240,"118.csv","","11442.899999976158","<p><font size='6'>Arrrgh!</p></font><p>Can you be the best pirate? Try to find lots of gold! But beware, some islands have more gold than others, and over time, the island with the most gold may change. Can YOU figure it out? </p><font size='6'>GOOD LUCK, CAPTAIN!!!</font><p>Press any key to begin</p>","32","",NA,NA,NA,NA,""
"image-keyboard-response",3,19080,"0.0-2.0-1.0","ugakguc6o78q64x",240,"118.csv","","null","resources/image_sets/111.png","null","",NA,NA,NA,NA,""
"image-keyboard-response",4,24999,"0.0-2.0-2.0","ugakguc6o78q64x",240,"118.csv","","5916.800000071526","resources/image_sets/left_highlight.png","37","",NA,NA,NA,NA,""
"image-keyboard-response",5,27209,"0.0-2.0-3.0","ugakguc6o78q64x",240,"118.csv","","2207.5","resources/image_sets/mid_highlight.png","38","",NA,NA,NA,NA,""
"image-keyboard-response",6,27986,"0.0-2.0-4.0","ugakguc6o78q64x",240,"118.csv","","775.2999999523163","resources/image_sets/right_highlight.png","39","",NA,NA,NA,NA,""
"image-keyboard-response",7,34874,"0.0-2.0-5.0","ugakguc6o78q64x",240,"118.csv","","6886.799999952316","resources/image_sets/111.png","13","",NA,NA,NA,NA,""
"image-keyboard-response",8,38505,"0.0-2.0-6.0","ugakguc6o78q64x",240,"118.csv","","3628.7000000476837","resources/images/coin2.png","13","",NA,NA,NA,NA,""
"image-keyboard-response",9,40719,"0.0-2.0-7.0","ugakguc6o78q64x",240,"118.csv","","2211.600000023842","resources/images/fishbone.png","13","",NA,NA,NA,NA,""
"html-keyboard-response",10,50024,"0.0-2.0-8.0","ugakguc6o78q64x",240,"118.csv","","9304.099999904633","<p>Your first journey will be a long one, but you will get a well deserved break at the end</p><p>After the break you will have four more journeys, but each will be much shorter than the first, and you will have breaks in between each</p><p>Press Enter to begin</p>","13","",NA,NA,NA,NA,""
"image-keyboard-response",11,51011,"0.0-3.0-0.0","ugakguc6o78q64x",240,"118.csv","","984.5","resources/trios/L2T4A3.jpg","37","restless",0.3,0.9,0.7,0.0251039659204075,"true"
"image-keyboard-response",12,51419,"0.0-3.0-1.0","ugakguc6o78q64x",240,"118.csv","","null","resources/maskTrios/L2BB.jpg","null","",NA,NA,NA,NA,""
"image-keyboard-response",13,52628,"0.0-3.0-2.0","ugakguc6o78q64x",240,"118.csv","","null","resources/images/coin2.png","null","",NA,NA,NA,NA,""
"image-keyboard-response",14,54248,"0.0-3.1-0.1","ugakguc6o78q64x",240,"118.csv","","1618","resources/trios/L2T4A3.jpg","39","restless",0.2,0.9,0.7,0.350063629349936,"true"
"image-keyboard-response",15,54656,"0.0-3.1-1.1","ugakguc6o78q64x",240,"118.csv","","null","resources/maskTrios/BBA3.jpg","null","",NA,NA,NA,NA,""
"image-keyboard-response",16,55863,"0.0-3.1-2.1","ugakguc6o78q64x",240,"118.csv","","null","resources/images/coin2.png","null","",NA,NA,NA,NA,""
"image-keyboard-response",17,57418,"0.0-3.2-0.2","ugakguc6o78q64x",240,"118.csv","","1552.6999999284744","resources/trios/L4T2A2.jpg","39","restless",0.2,0.9,0.7,0.29739154937855,"true"
"image-keyboard-response",18,57825,"0.0-3.2-1.2","ugakguc6o78q64x",240,"118.csv","","null","resources/maskTrios/BBA2.jpg","null","",NA,NA,NA,NA,""
"image-keyboard-response",19,59033,"0.0-3.2-2.2","ugakguc6o78q64x",240,"118.csv","","null","resources/images/coin2.png","null","",NA,NA,NA,NA,""
"image-keyboard-response",20,60498,"0.0-3.3-0.3","ugakguc6o78q64x",240,"118.csv","","1462.6000000238419","resources/trios/L4T4A3.jpg","39","restless",0.2,0.9,0.7,0.318053167224617,"true"
"image-keyboard-response",21,60902,"0.0-3.3-1.3","ugakguc6o78q64x",240,"118.csv","","null","resources/maskTrios/BBA3.jpg","null","",NA,NA,NA,NA,""
"image-keyboard-response",22,62109,"0.0-3.3-2.3","ugakguc6o78q64x",240,"118.csv","","null","resources/images/coin2.png","null","",NA,NA,NA,NA,""
"image-keyboard-response",23,62881,"0.0-3.4-0.4","ugakguc6o78q64x",240,"118.csv","","769.6000000238419","resources/trios/L4T2A3.jpg","39","restless",0.2,0.9,0.7,0.402774352157514,"true"
"image-keyboard-response",24,63288,"0.0-3.4-1.4","ugakguc6o78q64x",240,"118.csv","","null","resources/maskTrios/BBA3.jpg","null","",NA,NA,NA,NA,""
"image-keyboard-response",25,64496,"0.0-3.4-2.4","ugakguc6o78q64x",240,"118.csv","","null","resources/images/coin2.png","null","",NA,NA,NA,NA,""
"image-keyboard-response",26,64947,"0.0-3.5-0.5","ugakguc6o78q64x",240,"118.csv","","448.89999997615814","resources/trios/L4T2A2.jpg","39","restless",0.2,0.9,0.7,0.65930056563433,"true"
"image-keyboard-response",27,65350,"0.0-3.5-1.5","ugakguc6o78q64x",240,"118.csv","","null","resources/maskTrios/BBA2.jpg","null","",NA,NA,NA,NA,""
"image-keyboard-response",28,66557,"0.0-3.5-2.5","ugakguc6o78q64x",240,"118.csv","","null","resources/images/coin2.png","null","",NA,NA,NA,NA,""
"image-keyboard-response",29,66854,"0.0-3.6-0.6","ugakguc6o78q64x",240,"118.csv","","294.1999999284744","resources/trios/L2T4A2.jpg","39","restless",0.2,0.9,0.7,0.579846960838011,"true"
"image-keyboard-response",30,67259,"0.0-3.6-1.6","ugakguc6o78q64x",240,"118.csv","","null","resources/maskTrios/BBA2.jpg","null","",NA,NA,NA,NA,""
"image-keyboard-response",31,68466,"0.0-3.6-2.6","ugakguc6o78q64x",240,"118.csv","","null","resources/images/coin2.png","null","",NA,NA,NA,NA,""
"image-keyboard-response",32,69114,"0.0-3.7-0.7","ugakguc6o78q64x",240,"118.csv","","646","resources/trios/L2T4A3.jpg","39","restless",0.2,0.9,0.7,0.076722539238208,"true"
"image-keyboard-response",33,69520,"0.0-3.7-1.7","ugakguc6o78q64x",240,"118.csv","","null","resources/maskTrios/BBA3.jpg","null","",NA,NA,NA,NA,""
"image-keyboard-response",34,70728,"0.0-3.7-2.7","ugakguc6o78q64x",240,"118.csv","","null","resources/images/coin2.png","null","",NA,NA,NA,NA,""
"image-keyboard-response",35,71360,"0.0-3.8-0.8","ugakguc6o78q64x",240,"118.csv","","630.6000000238419","resources/trios/L2T4A3.jpg","39","restless",0.2,0.9,0.7,0.147589800240786,"true"
"image-keyboard-response",36,71767,"0.0-3.8-1.8","ugakguc6o78q64x",240,"118.csv","","null","resources/maskTrios/BBA3.jpg","null","",NA,NA,NA,NA,""
"image-keyboard-response",37,72971,"0.0-3.8-2.8","ugakguc6o78q64x",240,"118.csv","","null","resources/images/coin2.png","null","",NA,NA,NA,NA,""
"image-keyboard-response",38,73861,"0.0-3.9-0.9","ugakguc6o78q64x",240,"118.csv","","888.1000000238419","resources/trios/L4T2A2.jpg","39","restless",0.2,0.9,0.7,0.763394804308346,"false"
"image-keyboard-response",39,74269,"0.0-3.9-1.9","ugakguc6o78q64x",240,"118.csv","","null","resources/maskTrios/BBA2.jpg","null","",NA,NA,NA,NA,""
"image-keyboard-response",40,75476,"0.0-3.9-2.9","ugakguc6o78q64x",240,"118.csv","","null","resources/images/fishbone.png","null","",NA,NA,NA,NA,""
"image-keyboard-response",41,77267,"0.0-3.10-0.10","ugakguc6o78q64x",240,"118.csv","","1788.8999999761581","resources/trios/L4T4A3.jpg","37","restless",0.2,0.9,0.7,0.418418277958512,"false"
"image-keyboard-response",42,77674,"0.0-3.10-1.10","ugakguc6o78q64x",240,"118.csv","","null","resources/maskTrios/L4BB.jpg","null","",NA,NA,NA,NA,""
"image-keyboard-response",43,78881,"0.0-3.10-2.10","ugakguc6o78q64x",240,"118.csv","","null","resources/images/fishbone.png","null","",NA,NA,NA,NA,""
"image-keyboard-response",44,79286,"0.0-3.11-0.11","ugakguc6o78q64x",240,"118.csv","","402.6999999284744","resources/trios/L2T2A3.jpg","39","restless",0.2,0.8,0.7,0.537522602827228,"true"
"image-keyboard-response",45,79693,"0.0-3.11-1.11","ugakguc6o78q64x",240,"118.csv","","null","resources/maskTrios/BBA3.jpg","null","",NA,NA,NA,NA,""
"image-keyboard-response",46,80900,"0.0-3.11-2.11","ugakguc6o78q64x",240,"118.csv","","null","resources/images/coin2.png","null","",NA,NA,NA,NA,""
"image-keyboard-response",47,81322,"0.0-3.12-0.12","ugakguc6o78q64x",240,"118.csv","","415.7000000476837","resources/trios/L2T4A3.jpg","39","restless",0.3,0.8,0.7,0.427838353121588,"true"
"image-keyboard-response",48,81729,"0.0-3.12-1.12","ugakguc6o78q64x",240,"118.csv","","null","resources/maskTrios/BBA3.jpg","null","",NA,NA,NA,NA,""
"image-keyboard-response",49,82936,"0.0-3.12-2.12","ugakguc6o78q64x",240,"118.csv","","null","resources/images/coin2.png","null","",NA,NA,NA,NA,""
"image-keyboard-response",50,83257,"0.0-3.13-0.13","ugakguc6o78q64x",240,"118.csv","","317.89999997615814","resources/trios/L4T2A3.jpg","39","restless",0.3,0.8,0.7,0.957023561209613,"false"
"image-keyboard-response",51,83664,"0.0-3.13-1.13","ugakguc6o78q64x",240,"118.csv","","null","resources/maskTrios/BBA3.jpg","null","",NA,NA,NA,NA,""
"image-keyboard-response",52,84871,"0.0-3.13-2.13","ugakguc6o78q64x",240,"118.csv","","null","resources/images/fishbone.png","null","",NA,NA,NA,NA,""
"image-keyboard-response",53,85578,"0.0-3.14-0.14","ugakguc6o78q64x",240,"118.csv","","704.8999999761581","resources/trios/L2T2A3.jpg","39","restless",0.3,0.8,0.6,0.37053813922,"true"
"image-keyboard-response",54,85985,"0.0-3.14-1.14","ugakguc6o78q64x",240,"118.csv","","null","resources/maskTrios/BBA3.jpg","null","",NA,NA,NA,NA,""
"image-keyboard-response",55,87192,"0.0-3.14-2.14","ugakguc6o78q64x",240,"118.csv","","null","resources/images/coin2.png","null","",NA,NA,NA,NA,""
"image-keyboard-response",56,87726,"0.0-3.15-0.15","ugakguc6o78q64x",240,"118.csv","","531.8000000715256","resources/trios/L2T2A3.jpg","39","restless",0.3,0.8,0.5,0.171733379071749,"true"
"image-keyboard-response",57,88130,"0.0-3.15-1.15","ugakguc6o78q64x",240,"118.csv","","null","resources/maskTrios/BBA3.jpg","null","",NA,NA,NA,NA,""
"image-keyboard-response",58,89335,"0.0-3.15-2.15","ugakguc6o78q64x",240,"118.csv","","null","resources/images/coin2.png","null","",NA,NA,NA,NA,""
"image-keyboard-response",59,90295,"0.0-3.16-0.16","ugakguc6o78q64x",240,"118.csv","","958.1999999284744","resources/trios/L2T4A2.jpg","38","restless",0.4,0.8,0.5,0.778839113232343,"true"
"image-keyboard-response",60,90702,"0.0-3.16-1.16","ugakguc6o78q64x",240,"118.csv","","null","resources/maskTrios/BT4B.jpg","null","",NA,NA,NA,NA,""
"image-keyboard-response",61,91910,"0.0-3.16-2.16","ugakguc6o78q64x",240,"118.csv","","null","resources/images/coin2.png","null","",NA,NA,NA,NA,""
"image-keyboard-response",62,93210,"0.0-3.17-0.17","ugakguc6o78q64x",240,"118.csv","","1298.3999999761581","resources/trios/L4T2A3.jpg","38","restless",0.4,0.8,0.5,0.522701421071001,"true"
"image-keyboard-response",63,93617,"0.0-3.17-1.17","ugakguc6o78q64x",240,"118.csv","","null","resources/maskTrios/BT2B.jpg","null","",NA,NA,NA,NA,""
"image-keyboard-response",64,94824,"0.0-3.17-2.17","ugakguc6o78q64x",240,"118.csv","","null","resources/images/coin2.png","null","",NA,NA,NA,NA,""
"image-keyboard-response",65,95118,"0.0-3.18-0.18","ugakguc6o78q64x",240,"118.csv","","292","resources/trios/L4T4A3.jpg","37","restless",0.4,0.8,0.5,0.735953019084056,"false"
"image-keyboard-response",66,95526,"0.0-3.18-1.18","ugakguc6o78q64x",240,"118.csv","","null","resources/maskTrios/L4BB.jpg","null","",NA,NA,NA,NA,""
"image-keyboard-response",67,96732,"0.0-3.18-2.18","ugakguc6o78q64x",240,"118.csv","","null","resources/images/fishbone.png","null","",NA,NA,NA,NA,""
"image-keyboard-response",68,97353,"0.0-3.19-0.19","ugakguc6o78q64x",240,"118.csv","","618.3999999761581","resources/trios/L4T4A2.jpg","39","restless",0.5,0.8,0.5,0.914289251345571,"false"
"image-keyboard-response",69,97761,"0.0-3.19-1.19","ugakguc6o78q64x",240,"118.csv","","null","resources/maskTrios/BBA2.jpg","null","",NA,NA,NA,NA,""
"image-keyboard-response",70,98967,"0.0-3.19-2.19","ugakguc6o78q64x",240,"118.csv","","null","resources/images/fishbone.png","null","",NA,NA,NA,NA,""
"image-keyboard-response",71,99389,"0.0-3.20-0.20","ugakguc6o78q64x",240,"118.csv","","419.5","resources/trios/L2T2A2.jpg","37","restless",0.5,0.8,0.5,0.966023874953301,"false"
"image-keyboard-response",72,99796,"0.0-3.20-1.20","ugakguc6o78q64x",240,"118.csv","","null","resources/maskTrios/L2BB.jpg","null","",NA,NA,NA,NA,""
"image-keyboard-response",73,101003,"0.0-3.20-2.20","ugakguc6o78q64x",240,"118.csv","","null","resources/images/fishbone.png","null","",NA,NA,NA,NA,""
"image-keyboard-response",74,102017,"0.0-3.21-0.21","ugakguc6o78q64x",240,"118.csv","","1012.2999999523163","resources/trios/L2T2A3.jpg","38","restless",0.5,0.8,0.5,0.637120231037246,"true"
"image-keyboard-response",75,102424,"0.0-3.21-1.21","ugakguc6o78q64x",240,"118.csv","","null","resources/maskTrios/BT2B.jpg","null","",NA,NA,NA,NA,""
"image-keyboard-response",76,103631,"0.0-3.21-2.21","ugakguc6o78q64x",240,"118.csv","","null","resources/images/coin2.png","null","",NA,NA,NA,NA,""
"image-keyboard-response",77,104049,"0.0-3.22-0.22","ugakguc6o78q64x",240,"118.csv","","415.2000000476837","resources/trios/L4T4A3.jpg","38","restless",0.5,0.8,0.5,0.386641336655423,"true"
"image-keyboard-response",78,104456,"0.0-3.22-1.22","ugakguc6o78q64x",240,"118.csv","","null","resources/maskTrios/BT4B.jpg","null","",NA,NA,NA,NA,""
"image-keyboard-response",79,105661,"0.0-3.22-2.22","ugakguc6o78q64x",240,"118.csv","","null","resources/images/coin2.png","null","",NA,NA,NA,NA,""
"image-keyboard-response",80,106169,"0.0-3.23-0.23","ugakguc6o78q64x",240,"118.csv","","506.1999999284744","resources/trios/L4T4A3.jpg","39","restless",0.5,0.8,0.5,0.958366257171504,"false"
"image-keyboard-response",81,106576,"0.0-3.23-1.23","ugakguc6o78q64x",240,"118.csv","","null","resources/maskTrios/BBA3.jpg","null","",NA,NA,NA,NA,""
"image-keyboard-response",82,107783,"0.0-3.23-2.23","ugakguc6o78q64x",240,"118.csv","","null","resources/images/fishbone.png","null","",NA,NA,NA,NA,""
"image-keyboard-response",83,108858,"0.0-3.24-0.24","ugakguc6o78q64x",240,"118.csv","","1073.8000000715256","resources/trios/L4T4A3.jpg","37","restless",0.5,0.8,0.5,0.522709748032658,"false"
"image-keyboard-response",84,109266,"0.0-3.24-1.24","ugakguc6o78q64x",240,"118.csv","","null","resources/maskTrios/L4BB.jpg","null","",NA,NA,NA,NA,""
"image-keyboard-response",85,110473,"0.0-3.24-2.24","ugakguc6o78q64x",240,"118.csv","","null","resources/images/fishbone.png","null","",NA,NA,NA,NA,""
"image-keyboard-response",86,110825,"0.0-3.25-0.25","ugakguc6o78q64x",240,"118.csv","","350.39999997615814","resources/trios/L4T2A2.jpg","39","restless",0.5,0.8,0.5,0.43821547114356,"true"
"image-keyboard-response",87,111232,"0.0-3.25-1.25","ugakguc6o78q64x",240,"118.csv","","null","resources/maskTrios/BBA2.jpg","null","",NA,NA,NA,NA,""
"image-keyboard-response",88,112440,"0.0-3.25-2.25","ugakguc6o78q64x",240,"118.csv","","null","resources/images/coin2.png","null","",NA,NA,NA,NA,""
"image-keyboard-response",89,112966,"0.0-3.26-0.26","ugakguc6o78q64x",240,"118.csv","","523.8999999761581","resources/trios/L2T2A2.jpg","39","restless",0.6,0.8,0.5,0.560022516709949,"false"
"image-keyboard-response",90,113373,"0.0-3.26-1.26","ugakguc6o78q64x",240,"118.csv","","null","resources/maskTrios/BBA2.jpg","null","",NA,NA,NA,NA,""
"image-keyboard-response",91,114580,"0.0-3.26-2.26","ugakguc6o78q64x",240,"118.csv","","null","resources/images/fishbone.png","null","",NA,NA,NA,NA,""
"image-keyboard-response",92,114895,"0.0-3.27-0.27","ugakguc6o78q64x",240,"118.csv","","312.5","resources/trios/L2T4A3.jpg","38","restless",0.6,0.8,0.6,0.491244577168086,"true"
"image-keyboard-response",93,115302,"0.0-3.27-1.27","ugakguc6o78q64x",240,"118.csv","","null","resources/maskTrios/BT4B.jpg","null","",NA,NA,NA,NA,""
"image-keyboard-response",94,116509,"0.0-3.27-2.27","ugakguc6o78q64x",240,"118.csv","","null","resources/images/coin2.png","null","",NA,NA,NA,NA,""
"image-keyboard-response",95,116971,"0.0-3.28-0.28","ugakguc6o78q64x",240,"118.csv","","459.39999997615814","resources/trios/L2T4A2.jpg","38","restless",0.6,0.8,0.6,0.977871595094677,"false"
"image-keyboard-response",96,117378,"0.0-3.28-1.28","ugakguc6o78q64x",240,"118.csv","","null","resources/maskTrios/BT4B.jpg","null","",NA,NA,NA,NA,""
"image-keyboard-response",97,118585,"0.0-3.28-2.28","ugakguc6o78q64x",240,"118.csv","","null","resources/images/fishbone.png","null","",NA,NA,NA,NA,""
"image-keyboard-response",98,119227,"0.0-3.29-0.29","ugakguc6o78q64x",240,"118.csv","","639.5","resources/trios/L4T2A3.jpg","39","restless",0.6,0.8,0.6,0.547668394918029,"true"
"image-keyboard-response",99,119634,"0.0-3.29-1.29","ugakguc6o78q64x",240,"118.csv","","null","resources/maskTrios/BBA3.jpg","null","",NA,NA,NA,NA,""
"image-keyboard-response",100,120842,"0.0-3.29-2.29","ugakguc6o78q64x",240,"118.csv","","null","resources/images/coin2.png","null","",NA,NA,NA,NA,""
"image-keyboard-response",101,121224,"0.0-3.30-0.30","ugakguc6o78q64x",240,"118.csv","","380.1999999284744","resources/trios/L2T4A3.jpg","39","restless",0.6,0.8,0.6,0.344561344644225,"true"
"image-keyboard-response",102,121631,"0.0-3.30-1.30","ugakguc6o78q64x",240,"118.csv","","null","resources/maskTrios/BBA3.jpg","null","",NA,NA,NA,NA,""
"image-keyboard-response",103,122838,"0.0-3.30-2.30","ugakguc6o78q64x",240,"118.csv","","null","resources/images/coin2.png","null","",NA,NA,NA,NA,""
"image-keyboard-response",104,123506,"0.0-3.31-0.31","ugakguc6o78q64x",240,"118.csv","","665.5","resources/trios/L4T4A3.jpg","39","restless",0.6,0.7,0.6,0.699696029521971,"false"
"image-keyboard-response",105,123913,"0.0-3.31-1.31","ugakguc6o78q64x",240,"118.csv","","null","resources/maskTrios/BBA3.jpg","null","",NA,NA,NA,NA,""
"image-keyboard-response",106,125120,"0.0-3.31-2.31","ugakguc6o78q64x",240,"118.csv","","null","resources/images/fishbone.png","null","",NA,NA,NA,NA,""
"image-keyboard-response",107,126171,"0.0-3.32-0.32","ugakguc6o78q64x",240,"118.csv","","1047.8999999761581","resources/trios/L4T4A3.jpg","37","restless",0.6,0.7,0.6,0.124120940738772,"true"
"image-keyboard-response",108,126576,"0.0-3.32-1.32","ugakguc6o78q64x",240,"118.csv","","null","resources/maskTrios/L4BB.jpg","null","",NA,NA,NA,NA,""
"image-keyboard-response",109,127784,"0.0-3.32-2.32","ugakguc6o78q64x",240,"118.csv","","null","resources/images/coin2.png","null","",NA,NA,NA,NA,""
"image-keyboard-response",110,130698,"0.0-3.33-0.33","ugakguc6o78q64x",240,"118.csv","","2912.100000023842","resources/trios/L2T4A3.jpg","39","restless",0.6,0.7,0.6,0.358630240262943,"true"
"image-keyboard-response",111,131105,"0.0-3.33-1.33","ugakguc6o78q64x",240,"118.csv","","null","resources/maskTrios/BBA3.jpg","null","",NA,NA,NA,NA,""
"image-keyboard-response",112,132313,"0.0-3.33-2.33","ugakguc6o78q64x",240,"118.csv","","null","resources/images/coin2.png","null","",NA,NA,NA,NA,""
"image-keyboard-response",113,133795,"0.0-3.34-0.34","ugakguc6o78q64x",240,"118.csv","","1479.6999999284744","resources/trios/L4T4A3.jpg","39","restless",0.6,0.6,0.6,0.332909981198901,"true"
"image-keyboard-response",114,134202,"0.0-3.34-1.34","ugakguc6o78q64x",240,"118.csv","","null","resources/maskTrios/BBA3.jpg","null","",NA,NA,NA,NA,""
"image-keyboard-response",115,135409,"0.0-3.34-2.34","ugakguc6o78q64x",240,"118.csv","","null","resources/images/coin2.png","null","",NA,NA,NA,NA,""
"image-keyboard-response",116,137649,"0.0-3.35-0.35","ugakguc6o78q64x",240,"118.csv","","2238.5999999046326","resources/trios/L4T4A2.jpg","37","restless",0.6,0.6,0.6,0.606060112269239,"false"
"image-keyboard-response",117,138057,"0.0-3.35-1.35","ugakguc6o78q64x",240,"118.csv","","null","resources/maskTrios/L4BB.jpg","null","",NA,NA,NA,NA,""
"image-keyboard-response",118,139263,"0.0-3.35-2.35","ugakguc6o78q64x",240,"118.csv","","null","resources/images/fishbone.png","null","",NA,NA,NA,NA,""
"image-keyboard-response",119,139733,"0.0-3.36-0.36","ugakguc6o78q64x",240,"118.csv","","467.39999997615814","resources/trios/L2T4A3.jpg","39","restless",0.6,0.6,0.6,0.075944217427425,"true"
"image-keyboard-response",120,140139,"0.0-3.36-1.36","ugakguc6o78q64x",240,"118.csv","","null","resources/maskTrios/BBA3.jpg","null","",NA,NA,NA,NA,""
"image-keyboard-response",121,141346,"0.0-3.36-2.36","ugakguc6o78q64x",240,"118.csv","","null","resources/images/coin2.png","null","",NA,NA,NA,NA,""
"image-keyboard-response",122,144768,"0.0-3.37-0.37","ugakguc6o78q64x",240,"118.csv","","3419.7000000476837","resources/trios/L4T4A2.jpg","38","restless",0.6,0.6,0.6,0.42801118838009,"true"
"image-keyboard-response",123,145176,"0.0-3.37-1.37","ugakguc6o78q64x",240,"118.csv","","null","resources/maskTrios/BT4B.jpg","null","",NA,NA,NA,NA,""
"image-keyboard-response",124,146379,"0.0-3.37-2.37","ugakguc6o78q64x",240,"118.csv","","null","resources/images/coin2.png","null","",NA,NA,NA,NA,""
"image-keyboard-response",125,148291,"0.0-3.38-0.38","ugakguc6o78q64x",240,"118.csv","","1910.3999999761581","resources/trios/L2T4A2.jpg","37","restless",0.6,0.7,0.6,0.115499794560265,"true"
"image-keyboard-response",126,148699,"0.0-3.38-1.38","ugakguc6o78q64x",240,"118.csv","","null","resources/maskTrios/L2BB.jpg","null","",NA,NA,NA,NA,""
"image-keyboard-response",127,149906,"0.0-3.38-2.38","ugakguc6o78q64x",240,"118.csv","","null","resources/images/coin2.png","null","",NA,NA,NA,NA,""
"image-keyboard-response",128,151189,"0.0-3.39-0.39","ugakguc6o78q64x",240,"118.csv","","1280.7999999523163","resources/trios/L2T2A3.jpg","39","restless",0.6,0.7,0.6,0.936723883834271,"false"
"image-keyboard-response",129,151596,"0.0-3.39-1.39","ugakguc6o78q64x",240,"118.csv","","null","resources/maskTrios/BBA3.jpg","null","",NA,NA,NA,NA,""
"image-keyboard-response",130,152799,"0.0-3.39-2.39","ugakguc6o78q64x",240,"118.csv","","null","resources/images/fishbone.png","null","",NA,NA,NA,NA,""
"image-keyboard-response",131,153793,"0.0-3.40-0.40","ugakguc6o78q64x",240,"118.csv","","991.5","resources/trios/L4T2A2.jpg","38","restless",0.6,0.7,0.6,0.999401234375907,"false"
"image-keyboard-response",132,154200,"0.0-3.40-1.40","ugakguc6o78q64x",240,"118.csv","","null","resources/maskTrios/BT2B.jpg","null","",NA,NA,NA,NA,""
"image-keyboard-response",133,155406,"0.0-3.40-2.40","ugakguc6o78q64x",240,"118.csv","","null","resources/images/fishbone.png","null","",NA,NA,NA,NA,""
"image-keyboard-response",134,159563,"0.0-3.41-0.41","ugakguc6o78q64x",240,"118.csv","","4153.799999952316","resources/trios/L4T2A2.jpg","39","restless",0.6,0.7,0.6,0.373162820224184,"true"
"image-keyboard-response",135,159968,"0.0-3.41-1.41","ugakguc6o78q64x",240,"118.csv","","null","resources/maskTrios/BBA2.jpg","null","",NA,NA,NA,NA,""
"image-keyboard-response",136,161175,"0.0-3.41-2.41","ugakguc6o78q64x",240,"118.csv","","null","resources/images/coin2.png","null","",NA,NA,NA,NA,""
"image-keyboard-response",137,162892,"0.0-3.42-0.42","ugakguc6o78q64x",240,"118.csv","","1714","resources/trios/L2T2A2.jpg","37","restless",0.6,0.6,0.5,0.471663181549709,"true"
"image-keyboard-response",138,163299,"0.0-3.42-1.42","ugakguc6o78q64x",240,"118.csv","","null","resources/maskTrios/L2BB.jpg","null","",NA,NA,NA,NA,""
"image-keyboard-response",139,164506,"0.0-3.42-2.42","ugakguc6o78q64x",240,"118.csv","","null","resources/images/coin2.png","null","",NA,NA,NA,NA,""
"image-keyboard-response",140,166131,"0.0-3.43-0.43","ugakguc6o78q64x",240,"118.csv","","1622.5","resources/trios/L4T2A2.jpg","39","restless",0.6,0.6,0.4,0.776070419203975,"false"
"image-keyboard-response",141,166538,"0.0-3.43-1.43","ugakguc6o78q64x",240,"118.csv","","null","resources/maskTrios/BBA2.jpg","null","",NA,NA,NA,NA,""
"image-keyboard-response",142,167745,"0.0-3.43-2.43","ugakguc6o78q64x",240,"118.csv","","null","resources/images/fishbone.png","null","",NA,NA,NA,NA,""
"image-keyboard-response",143,169856,"0.0-3.44-0.44","ugakguc6o78q64x",240,"118.csv","","2109.5","resources/trios/L4T2A2.jpg","38","restless",0.6,0.6,0.4,0.920713314109493,"false"
"image-keyboard-response",144,170263,"0.0-3.44-1.44","ugakguc6o78q64x",240,"118.csv","","null","resources/maskTrios/BT2B.jpg","null","",NA,NA,NA,NA,""
"image-keyboard-response",145,171470,"0.0-3.44-2.44","ugakguc6o78q64x",240,"118.csv","","null","resources/images/fishbone.png","null","",NA,NA,NA,NA,""
"image-keyboard-response",146,172966,"0.0-3.45-0.45","ugakguc6o78q64x",240,"118.csv","","1492.8999999761581","resources/trios/L4T2A2.jpg","37","restless",0.6,0.6,0.4,0.440057952214606,"true"
"image-keyboard-response",147,173372,"0.0-3.45-1.45","ugakguc6o78q64x",240,"118.csv","","null","resources/maskTrios/L4BB.jpg","null","",NA,NA,NA,NA,""
"image-keyboard-response",148,174580,"0.0-3.45-2.45","ugakguc6o78q64x",240,"118.csv","","null","resources/images/coin2.png","null","",NA,NA,NA,NA,""
"image-keyboard-response",149,175925,"0.0-3.46-0.46","ugakguc6o78q64x",240,"118.csv","","1343.1999999284744","resources/trios/L4T2A2.jpg","37","restless",0.6,0.6,0.4,0.716354118901475,"false"
"image-keyboard-response",150,176332,"0.0-3.46-1.46","ugakguc6o78q64x",240,"118.csv","","null","resources/maskTrios/L4BB.jpg","null","",NA,NA,NA,NA,""
"image-keyboard-response",151,177539,"0.0-3.46-2.46","ugakguc6o78q64x",240,"118.csv","","null","resources/images/fishbone.png","null","",NA,NA,NA,NA,""
"image-keyboard-response",152,179226,"0.0-3.47-0.47","ugakguc6o78q64x",240,"118.csv","","1684.5","resources/trios/L4T2A2.jpg","39","restless",0.6,0.5,0.4,0.467792629947533,"false"
"image-keyboard-response",153,179632,"0.0-3.47-1.47","ugakguc6o78q64x",240,"118.csv","","null","resources/maskTrios/BBA2.jpg","null","",NA,NA,NA,NA,""
"image-keyboard-response",154,180839,"0.0-3.47-2.47","ugakguc6o78q64x",240,"118.csv","","null","resources/images/fishbone.png","null","",NA,NA,NA,NA,""
"image-keyboard-response",155,184877,"0.0-3.48-0.48","ugakguc6o78q64x",240,"118.csv","","4035.9000000953674","resources/trios/L4T4A2.jpg","38","restless",0.6,0.5,0.4,0.915635816904536,"false"
"image-keyboard-response",156,185284,"0.0-3.48-1.48","ugakguc6o78q64x",240,"118.csv","","null","resources/maskTrios/BT4B.jpg","null","",NA,NA,NA,NA,""
"image-keyboard-response",157,186491,"0.0-3.48-2.48","ugakguc6o78q64x",240,"118.csv","","null","resources/images/fishbone.png","null","",NA,NA,NA,NA,""
"image-keyboard-response",158,187529,"0.0-3.49-0.49","ugakguc6o78q64x",240,"118.csv","","1036","resources/trios/L2T4A3.jpg","37","restless",0.6,0.5,0.5,0.230227954452472,"true"
"image-keyboard-response",159,187937,"0.0-3.49-1.49","ugakguc6o78q64x",240,"118.csv","","null","resources/maskTrios/L2BB.jpg","null","",NA,NA,NA,NA,""
"image-keyboard-response",160,189143,"0.0-3.49-2.49","ugakguc6o78q64x",240,"118.csv","","null","resources/images/coin2.png","null","",NA,NA,NA,NA,""
"image-keyboard-response",161,190164,"0.0-3.50-0.50","ugakguc6o78q64x",240,"118.csv","","1019.2000000476837","resources/trios/L4T4A3.jpg","39","restless",0.6,0.5,0.5,0.864328221900004,"false"
"image-keyboard-response",162,190571,"0.0-3.50-1.50","ugakguc6o78q64x",240,"118.csv","","null","resources/maskTrios/BBA3.jpg","null","",NA,NA,NA,NA,""
"image-keyboard-response",163,191778,"0.0-3.50-2.50","ugakguc6o78q64x",240,"118.csv","","null","resources/images/fishbone.png","null","",NA,NA,NA,NA,""
"image-keyboard-response",164,193571,"0.0-3.51-0.51","ugakguc6o78q64x",240,"118.csv","","1791.2000000476837","resources/trios/L2T4A3.jpg","39","restless",0.6,0.5,0.5,0.43361943074155,"true"
"image-keyboard-response",165,193978,"0.0-3.51-1.51","ugakguc6o78q64x",240,"118.csv","","null","resources/maskTrios/BBA3.jpg","null","",NA,NA,NA,NA,""
"image-keyboard-response",166,195185,"0.0-3.51-2.51","ugakguc6o78q64x",240,"118.csv","","null","resources/images/coin2.png","null","",NA,NA,NA,NA,""
"image-keyboard-response",167,196486,"0.0-3.52-0.52","ugakguc6o78q64x",240,"118.csv","","1298.6000000238419","resources/trios/L2T2A2.jpg","38","restless",0.6,0.5,0.5,0.699238251174649,"false"
"image-keyboard-response",168,196892,"0.0-3.52-1.52","ugakguc6o78q64x",240,"118.csv","","null","resources/maskTrios/BT2B.jpg","null","",NA,NA,NA,NA,""
"image-keyboard-response",169,198098,"0.0-3.52-2.52","ugakguc6o78q64x",240,"118.csv","","null","resources/images/fishbone.png","null","",NA,NA,NA,NA,""
"image-keyboard-response",170,199648,"0.0-3.53-0.53","ugakguc6o78q64x",240,"118.csv","","1547.6999999284744","resources/trios/L4T4A3.jpg","39","restless",0.6,0.5,0.5,0.273252805812732,"true"
"image-keyboard-response",171,200056,"0.0-3.53-1.53","ugakguc6o78q64x",240,"118.csv","","null","resources/maskTrios/BBA3.jpg","null","",NA,NA,NA,NA,""
"image-keyboard-response",172,201263,"0.0-3.53-2.53","ugakguc6o78q64x",240,"118.csv","","null","resources/images/coin2.png","null","",NA,NA,NA,NA,""
"image-keyboard-response",173,205275,"0.0-3.54-0.54","ugakguc6o78q64x",240,"118.csv","","4009.8000000715256","resources/trios/L4T4A2.jpg","38","restless",0.6,0.5,0.4,0.521399226462493,"false"
"image-keyboard-response",174,205681,"0.0-3.54-1.54","ugakguc6o78q64x",240,"118.csv","","null","resources/maskTrios/BT4B.jpg","null","",NA,NA,NA,NA,""
"image-keyboard-response",175,206888,"0.0-3.54-2.54","ugakguc6o78q64x",240,"118.csv","","null","resources/images/fishbone.png","null","",NA,NA,NA,NA,""
"image-keyboard-response",176,207710,"0.0-3.55-0.55","ugakguc6o78q64x",240,"118.csv","","820.1000000238419","resources/trios/L2T4A2.jpg","37","restless",0.6,0.5,0.4,0.148147626639939,"true"
"image-keyboard-response",177,208117,"0.0-3.55-1.55","ugakguc6o78q64x",240,"118.csv","","null","resources/maskTrios/L2BB.jpg","null","",NA,NA,NA,NA,""
"image-keyboard-response",178,209324,"0.0-3.55-2.55","ugakguc6o78q64x",240,"118.csv","","null","resources/images/coin2.png","null","",NA,NA,NA,NA,""
"image-keyboard-response",179,210213,"0.0-3.56-0.56","ugakguc6o78q64x",240,"118.csv","","886.6999999284744","resources/trios/L4T2A3.jpg","39","restless",0.6,0.5,0.4,0.0292192854670941,"true"
"image-keyboard-response",180,210620,"0.0-3.56-1.56","ugakguc6o78q64x",240,"118.csv","","null","resources/maskTrios/BBA3.jpg","null","",NA,NA,NA,NA,""
"image-keyboard-response",181,211826,"0.0-3.56-2.56","ugakguc6o78q64x",240,"118.csv","","null","resources/images/coin2.png","null","",NA,NA,NA,NA,""
"image-keyboard-response",182,214867,"0.0-3.57-0.57","ugakguc6o78q64x",240,"118.csv","","3038.5","resources/trios/L4T4A2.jpg","37","restless",0.6,0.5,0.4,0.273662704600286,"true"
"image-keyboard-response",183,215273,"0.0-3.57-1.57","ugakguc6o78q64x",240,"118.csv","","null","resources/maskTrios/L4BB.jpg","null","",NA,NA,NA,NA,""
"image-keyboard-response",184,216480,"0.0-3.57-2.57","ugakguc6o78q64x",240,"118.csv","","null","resources/images/coin2.png","null","",NA,NA,NA,NA,""
"image-keyboard-response",185,217708,"0.0-3.58-0.58","ugakguc6o78q64x",240,"118.csv","","1225.1000000238419","resources/trios/L4T2A3.jpg","39","restless",0.6,0.5,0.4,0.50628254181638,"false"
"image-keyboard-response",186,218114,"0.0-3.58-1.58","ugakguc6o78q64x",240,"118.csv","","null","resources/maskTrios/BBA3.jpg","null","",NA,NA,NA,NA,""
"image-keyboard-response",187,219321,"0.0-3.58-2.58","ugakguc6o78q64x",240,"118.csv","","null","resources/images/fishbone.png","null","",NA,NA,NA,NA,""
"image-keyboard-response",188,220061,"0.0-3.59-0.59","ugakguc6o78q64x",240,"118.csv","","737.8000000715256","resources/trios/L2T2A3.jpg","39","restless",0.6,0.5,0.4,0.518263053581098,"false"
"image-keyboard-response",189,220468,"0.0-3.59-1.59","ugakguc6o78q64x",240,"118.csv","","null","resources/maskTrios/BBA3.jpg","null","",NA,NA,NA,NA,""
"image-keyboard-response",190,221675,"0.0-3.59-2.59","ugakguc6o78q64x",240,"118.csv","","null","resources/images/fishbone.png","null","",NA,NA,NA,NA,""
"image-keyboard-response",191,222090,"0.0-3.60-0.60","ugakguc6o78q64x",240,"118.csv","","412.60000002384186","resources/trios/L4T4A3.jpg","37","restless",0.6,0.6,0.3,0.127814519899912,"true"
"image-keyboard-response",192,222497,"0.0-3.60-1.60","ugakguc6o78q64x",240,"118.csv","","null","resources/maskTrios/L4BB.jpg","null","",NA,NA,NA,NA,""
"image-keyboard-response",193,223704,"0.0-3.60-2.60","ugakguc6o78q64x",240,"118.csv","","null","resources/images/coin2.png","null","",NA,NA,NA,NA,""
"image-keyboard-response",194,224952,"0.0-3.61-0.61","ugakguc6o78q64x",240,"118.csv","","1246.0999999046326","resources/trios/L2T2A2.jpg","37","restless",0.6,0.7,0.3,0.444489716609925,"true"
"image-keyboard-response",195,225359,"0.0-3.61-1.61","ugakguc6o78q64x",240,"118.csv","","null","resources/maskTrios/L2BB.jpg","null","",NA,NA,NA,NA,""
"image-keyboard-response",196,226566,"0.0-3.61-2.61","ugakguc6o78q64x",240,"118.csv","","null","resources/images/coin2.png","null","",NA,NA,NA,NA,""
"image-keyboard-response",197,227900,"0.0-3.62-0.62","ugakguc6o78q64x",240,"118.csv","","1331.3000000715256","resources/trios/L2T2A3.jpg","39","restless",0.6,0.7,0.3,0.660009891263948,"false"
"image-keyboard-response",198,228306,"0.0-3.62-1.62","ugakguc6o78q64x",240,"118.csv","","null","resources/maskTrios/BBA3.jpg","null","",NA,NA,NA,NA,""
"image-keyboard-response",199,229513,"0.0-3.62-2.62","ugakguc6o78q64x",240,"118.csv","","null","resources/images/fishbone.png","null","",NA,NA,NA,NA,""
"image-keyboard-response",200,230416,"0.0-3.63-0.63","ugakguc6o78q64x",240,"118.csv","","900.5","resources/trios/L2T4A3.jpg","37","restless",0.6,0.7,0.3,0.256598016686536,"true"
"image-keyboard-response",201,230823,"0.0-3.63-1.63","ugakguc6o78q64x",240,"118.csv","","null","resources/maskTrios/L2BB.jpg","null","",NA,NA,NA,NA,""
"image-keyboard-response",202,232030,"0.0-3.63-2.63","ugakguc6o78q64x",240,"118.csv","","null","resources/images/coin2.png","null","",NA,NA,NA,NA,""
"image-keyboard-response",203,233526,"0.0-3.64-0.64","ugakguc6o78q64x",240,"118.csv","","1493.7999999523163","resources/trios/L2T4A3.jpg","37","restless",0.6,0.7,0.3,0.695840739170279,"false"
"image-keyboard-response",204,233933,"0.0-3.64-1.64","ugakguc6o78q64x",240,"118.csv","","null","resources/maskTrios/L2BB.jpg","null","",NA,NA,NA,NA,""
"image-keyboard-response",205,235139,"0.0-3.64-2.64","ugakguc6o78q64x",240,"118.csv","","null","resources/images/fishbone.png","null","",NA,NA,NA,NA,""
"image-keyboard-response",206,236345,"0.0-3.65-0.65","ugakguc6o78q64x",240,"118.csv","","1204.3000000715256","resources/trios/L4T2A3.jpg","39","restless",0.6,0.7,0.4,0.25403022012199,"true"
"image-keyboard-response",207,236752,"0.0-3.65-1.65","ugakguc6o78q64x",240,"118.csv","","null","resources/maskTrios/BBA3.jpg","null","",NA,NA,NA,NA,""
"image-keyboard-response",208,237959,"0.0-3.65-2.65","ugakguc6o78q64x",240,"118.csv","","null","resources/images/coin2.png","null","",NA,NA,NA,NA,""
"image-keyboard-response",209,239229,"0.0-3.66-0.66","ugakguc6o78q64x",240,"118.csv","","1267.6999999284744","resources/trios/L4T4A3.jpg","37","restless",0.6,0.7,0.4,0.985132810255468,"false"
"image-keyboard-response",210,239632,"0.0-3.66-1.66","ugakguc6o78q64x",240,"118.csv","","null","resources/maskTrios/L4BB.jpg","null","",NA,NA,NA,NA,""
"image-keyboard-response",211,240837,"0.0-3.66-2.66","ugakguc6o78q64x",240,"118.csv","","null","resources/images/fishbone.png","null","",NA,NA,NA,NA,""
"image-keyboard-response",212,242184,"0.0-3.67-0.67","ugakguc6o78q64x",240,"118.csv","","1345","resources/trios/L4T2A2.jpg","38","restless",0.6,0.7,0.4,0.572475237327528,"true"
"image-keyboard-response",213,242591,"0.0-3.67-1.67","ugakguc6o78q64x",240,"118.csv","","null","resources/maskTrios/BT2B.jpg","null","",NA,NA,NA,NA,""
"image-keyboard-response",214,243798,"0.0-3.67-2.67","ugakguc6o78q64x",240,"118.csv","","null","resources/images/coin2.png","null","",NA,NA,NA,NA,""
"image-keyboard-response",215,244433,"0.0-3.68-0.68","ugakguc6o78q64x",240,"118.csv","","631.2999999523163","resources/trios/L2T4A3.jpg","39","restless",0.6,0.7,0.4,0.596952296367208,"false"
"image-keyboard-response",216,244840,"0.0-3.68-1.68","ugakguc6o78q64x",240,"118.csv","","null","resources/maskTrios/BBA3.jpg","null","",NA,NA,NA,NA,""
"image-keyboard-response",217,246047,"0.0-3.68-2.68","ugakguc6o78q64x",240,"118.csv","","null","resources/images/fishbone.png","null","",NA,NA,NA,NA,""
"image-keyboard-response",218,247766,"0.0-3.69-0.69","ugakguc6o78q64x",240,"118.csv","","1716.8000000715256","resources/trios/L4T2A2.jpg","38","restless",0.6,0.7,0.4,0.693153156156995,"true"
"image-keyboard-response",219,248173,"0.0-3.69-1.69","ugakguc6o78q64x",240,"118.csv","","null","resources/maskTrios/BT2B.jpg","null","",NA,NA,NA,NA,""
"image-keyboard-response",220,249380,"0.0-3.69-2.69","ugakguc6o78q64x",240,"118.csv","","null","resources/images/coin2.png","null","",NA,NA,NA,NA,""
"image-keyboard-response",221,250524,"0.0-3.70-0.70","ugakguc6o78q64x",240,"118.csv","","1141.7000000476837","resources/trios/L4T4A3.jpg","39","restless",0.6,0.7,0.4,0.284304098126457,"true"
"image-keyboard-response",222,250931,"0.0-3.70-1.70","ugakguc6o78q64x",240,"118.csv","","null","resources/maskTrios/BBA3.jpg","null","",NA,NA,NA,NA,""
"image-keyboard-response",223,252136,"0.0-3.70-2.70","ugakguc6o78q64x",240,"118.csv","","null","resources/images/coin2.png","null","",NA,NA,NA,NA,""
"image-keyboard-response",224,253126,"0.0-3.71-0.71","ugakguc6o78q64x",240,"118.csv","","988.5","resources/trios/L4T2A2.jpg","38","restless",0.6,0.7,0.4,0.167490520985377,"true"
"image-keyboard-response",225,253533,"0.0-3.71-1.71","ugakguc6o78q64x",240,"118.csv","","null","resources/maskTrios/BT2B.jpg","null","",NA,NA,NA,NA,""
"image-keyboard-response",226,254741,"0.0-3.71-2.71","ugakguc6o78q64x",240,"118.csv","","null","resources/images/coin2.png","null","",NA,NA,NA,NA,""
"image-keyboard-response",227,256232,"0.0-3.72-0.72","ugakguc6o78q64x",240,"118.csv","","1489.3000000715256","resources/trios/L2T2A3.jpg","39","restless",0.6,0.7,0.4,0.858021786786501,"false"
"image-keyboard-response",228,256639,"0.0-3.72-1.72","ugakguc6o78q64x",240,"118.csv","","null","resources/maskTrios/BBA3.jpg","null","",NA,NA,NA,NA,""
"image-keyboard-response",229,257846,"0.0-3.72-2.72","ugakguc6o78q64x",240,"118.csv","","null","resources/images/fishbone.png","null","",NA,NA,NA,NA,""
"image-keyboard-response",230,258682,"0.0-3.73-0.73","ugakguc6o78q64x",240,"118.csv","","834","resources/trios/L4T2A2.jpg","38","restless",0.6,0.7,0.4,0.432073654539306,"true"
"image-keyboard-response",231,259089,"0.0-3.73-1.73","ugakguc6o78q64x",240,"118.csv","","null","resources/maskTrios/BT2B.jpg","null","",NA,NA,NA,NA,""
"image-keyboard-response",232,260296,"0.0-3.73-2.73","ugakguc6o78q64x",240,"118.csv","","null","resources/images/coin2.png","null","",NA,NA,NA,NA,""
"image-keyboard-response",233,260959,"0.0-3.74-0.74","ugakguc6o78q64x",240,"118.csv","","661.7999999523163","resources/trios/L4T2A3.jpg","39","restless",0.6,0.7,0.4,0.00955860842800815,"true"
"image-keyboard-response",234,261366,"0.0-3.74-1.74","ugakguc6o78q64x",240,"118.csv","","null","resources/maskTrios/BBA3.jpg","null","",NA,NA,NA,NA,""
"image-keyboard-response",235,262573,"0.0-3.74-2.74","ugakguc6o78q64x",240,"118.csv","","null","resources/images/coin2.png","null","",NA,NA,NA,NA,""
"image-keyboard-response",236,263576,"0.0-3.75-0.75","ugakguc6o78q64x",240,"118.csv","","1000.8000000715256","resources/trios/L2T2A2.jpg","38","restless",0.6,0.7,0.4,0.00482662067779005,"true"
"image-keyboard-response",237,263980,"0.0-3.75-1.75","ugakguc6o78q64x",240,"118.csv","","null","resources/maskTrios/BT2B.jpg","null","",NA,NA,NA,NA,""
"image-keyboard-response",238,265187,"0.0-3.75-2.75","ugakguc6o78q64x",240,"118.csv","","null","resources/images/coin2.png","null","",NA,NA,NA,NA,""
"image-keyboard-response",239,266298,"0.0-3.76-0.76","ugakguc6o78q64x",240,"118.csv","","1108.1999999284744","resources/trios/L2T4A3.jpg","39","restless",0.6,0.7,0.4,0.333983727123698,"true"
"image-keyboard-response",240,266705,"0.0-3.76-1.76","ugakguc6o78q64x",240,"118.csv","","null","resources/maskTrios/BBA3.jpg","null","",NA,NA,NA,NA,""
"image-keyboard-response",241,267912,"0.0-3.76-2.76","ugakguc6o78q64x",240,"118.csv","","null","resources/images/coin2.png","null","",NA,NA,NA,NA,""
"image-keyboard-response",242,268989,"0.0-3.77-0.77","ugakguc6o78q64x",240,"118.csv","","1075.3000000715256","resources/trios/L4T4A3.jpg","39","restless",0.6,0.7,0.4,0.692844715980573,"false"
"image-keyboard-response",243,269397,"0.0-3.77-1.77","ugakguc6o78q64x",240,"118.csv","","null","resources/maskTrios/BBA3.jpg","null","",NA,NA,NA,NA,""
"image-keyboard-response",244,270603,"0.0-3.77-2.77","ugakguc6o78q64x",240,"118.csv","","null","resources/images/fishbone.png","null","",NA,NA,NA,NA,""
"image-keyboard-response",245,272141,"0.0-3.78-0.78","ugakguc6o78q64x",240,"118.csv","","1535.2999999523163","resources/trios/L2T4A3.jpg","39","restless",0.6,0.7,0.4,0.971185983886454,"false"
"image-keyboard-response",246,272548,"0.0-3.78-1.78","ugakguc6o78q64x",240,"118.csv","","null","resources/maskTrios/BBA3.jpg","null","",NA,NA,NA,NA,""
"image-keyboard-response",247,273755,"0.0-3.78-2.78","ugakguc6o78q64x",240,"118.csv","","null","resources/images/fishbone.png","null","",NA,NA,NA,NA,""
"image-keyboard-response",248,274381,"0.0-3.79-0.79","ugakguc6o78q64x",240,"118.csv","","624.1000000238419","resources/trios/L2T2A2.jpg","37","restless",0.5,0.7,0.4,0.0260415399695635,"true"
"image-keyboard-response",249,274787,"0.0-3.79-1.79","ugakguc6o78q64x",240,"118.csv","","null","resources/maskTrios/L2BB.jpg","null","",NA,NA,NA,NA,""
"image-keyboard-response",250,275994,"0.0-3.79-2.79","ugakguc6o78q64x",240,"118.csv","","null","resources/images/coin2.png","null","",NA,NA,NA,NA,""
"image-keyboard-response",251,276950,"0.0-3.80-0.80","ugakguc6o78q64x",240,"118.csv","","954.2999999523163","resources/trios/L4T4A3.jpg","39","restless",0.5,0.7,0.4,0.21635847055105,"true"
"image-keyboard-response",252,277358,"0.0-3.80-1.80","ugakguc6o78q64x",240,"118.csv","","null","resources/maskTrios/BBA3.jpg","null","",NA,NA,NA,NA,""
"image-keyboard-response",253,278565,"0.0-3.80-2.80","ugakguc6o78q64x",240,"118.csv","","null","resources/images/coin2.png","null","",NA,NA,NA,NA,""
"image-keyboard-response",254,280127,"0.0-3.81-0.81","ugakguc6o78q64x",240,"118.csv","","1559.8999999761581","resources/trios/L2T2A3.jpg","37","restless",0.5,0.6,0.4,0.137301632662093,"true"
"image-keyboard-response",255,280534,"0.0-3.81-1.81","ugakguc6o78q64x",240,"118.csv","","null","resources/maskTrios/L2BB.jpg","null","",NA,NA,NA,NA,""
"image-keyboard-response",256,281741,"0.0-3.81-2.81","ugakguc6o78q64x",240,"118.csv","","null","resources/images/coin2.png","null","",NA,NA,NA,NA,""
"image-keyboard-response",257,284540,"0.0-3.82-0.82","ugakguc6o78q64x",240,"118.csv","","2796.899999976158","resources/trios/L4T4A2.jpg","38","restless",0.5,0.6,0.4,0.662723054213861,"false"
"image-keyboard-response",258,284947,"0.0-3.82-1.82","ugakguc6o78q64x",240,"118.csv","","null","resources/maskTrios/BT4B.jpg","null","",NA,NA,NA,NA,""
"image-keyboard-response",259,286154,"0.0-3.82-2.82","ugakguc6o78q64x",240,"118.csv","","null","resources/images/fishbone.png","null","",NA,NA,NA,NA,""
"image-keyboard-response",260,287423,"0.0-3.83-0.83","ugakguc6o78q64x",240,"118.csv","","1267.3999999761581","resources/trios/L2T2A3.jpg","37","restless",0.5,0.6,0.4,0.849630702881377,"false"
"image-keyboard-response",261,287830,"0.0-3.83-1.83","ugakguc6o78q64x",240,"118.csv","","null","resources/maskTrios/L2BB.jpg","null","",NA,NA,NA,NA,""
"image-keyboard-response",262,289033,"0.0-3.83-2.83","ugakguc6o78q64x",240,"118.csv","","null","resources/images/fishbone.png","null","",NA,NA,NA,NA,""
"image-keyboard-response",263,290209,"0.0-3.84-0.84","ugakguc6o78q64x",240,"118.csv","","1174.0999999046326","resources/trios/L2T4A2.jpg","37","restless",0.5,0.6,0.4,0.740234211179866,"false"
"image-keyboard-response",264,290617,"0.0-3.84-1.84","ugakguc6o78q64x",240,"118.csv","","null","resources/maskTrios/L2BB.jpg","null","",NA,NA,NA,NA,""
"image-keyboard-response",265,291823,"0.0-3.84-2.84","ugakguc6o78q64x",240,"118.csv","","null","resources/images/fishbone.png","null","",NA,NA,NA,NA,""
"image-keyboard-response",266,293791,"0.0-3.85-0.85","ugakguc6o78q64x",240,"118.csv","","1965","resources/trios/L4T2A2.jpg","39","restless",0.5,0.6,0.4,0.819592041879462,"false"
"image-keyboard-response",267,294197,"0.0-3.85-1.85","ugakguc6o78q64x",240,"118.csv","","null","resources/maskTrios/BBA2.jpg","null","",NA,NA,NA,NA,""
"image-keyboard-response",268,295404,"0.0-3.85-2.85","ugakguc6o78q64x",240,"118.csv","","null","resources/images/fishbone.png","null","",NA,NA,NA,NA,""
"image-keyboard-response",269,296550,"0.0-3.86-0.86","ugakguc6o78q64x",240,"118.csv","","1143.5999999046326","resources/trios/L4T2A3.jpg","39","restless",0.5,0.6,0.4,0.760517244149418,"false"
"image-keyboard-response",270,296957,"0.0-3.86-1.86","ugakguc6o78q64x",240,"118.csv","","null","resources/maskTrios/BBA3.jpg","null","",NA,NA,NA,NA,""
"image-keyboard-response",271,298164,"0.0-3.86-2.86","ugakguc6o78q64x",240,"118.csv","","null","resources/images/fishbone.png","null","",NA,NA,NA,NA,""
"image-keyboard-response",272,299292,"0.0-3.87-0.87","ugakguc6o78q64x",240,"118.csv","","1125.6999999284744","resources/trios/L4T2A2.jpg","38","restless",0.6,0.6,0.4,0.693491259697606,"false"
"image-keyboard-response",273,299701,"0.0-3.87-1.87","ugakguc6o78q64x",240,"118.csv","","null","resources/maskTrios/BT2B.jpg","null","",NA,NA,NA,NA,""
"image-keyboard-response",274,300904,"0.0-3.87-2.87","ugakguc6o78q64x",240,"118.csv","","null","resources/images/fishbone.png","null","",NA,NA,NA,NA,""
"image-keyboard-response",275,301944,"0.0-3.88-0.88","ugakguc6o78q64x",240,"118.csv","","1038.8000000715256","resources/trios/L2T4A2.jpg","37","restless",0.6,0.6,0.4,0.589338882513176,"true"
"image-keyboard-response",276,302351,"0.0-3.88-1.88","ugakguc6o78q64x",240,"118.csv","","null","resources/maskTrios/L2BB.jpg","null","",NA,NA,NA,NA,""
"image-keyboard-response",277,303558,"0.0-3.88-2.88","ugakguc6o78q64x",240,"118.csv","","null","resources/images/coin2.png","null","",NA,NA,NA,NA,""
"image-keyboard-response",278,305308,"0.0-3.89-0.89","ugakguc6o78q64x",240,"118.csv","","1748","resources/trios/L4T4A2.jpg","37","restless",0.6,0.6,0.4,0.707095667256356,"false"
"image-keyboard-response",279,305716,"0.0-3.89-1.89","ugakguc6o78q64x",240,"118.csv","","null","resources/maskTrios/L4BB.jpg","null","",NA,NA,NA,NA,""
"image-keyboard-response",280,306923,"0.0-3.89-2.89","ugakguc6o78q64x",240,"118.csv","","null","resources/images/fishbone.png","null","",NA,NA,NA,NA,""
"image-keyboard-response",281,308338,"0.0-3.90-0.90","ugakguc6o78q64x",240,"118.csv","","1413.3999999761581","resources/trios/L4T4A2.jpg","38","restless",0.6,0.6,0.4,0.278655716967483,"true"
"image-keyboard-response",282,308745,"0.0-3.90-1.90","ugakguc6o78q64x",240,"118.csv","","null","resources/maskTrios/BT4B.jpg","null","",NA,NA,NA,NA,""
"image-keyboard-response",283,309948,"0.0-3.90-2.90","ugakguc6o78q64x",240,"118.csv","","null","resources/images/coin2.png","null","",NA,NA,NA,NA,""
"image-keyboard-response",284,311761,"0.0-3.91-0.91","ugakguc6o78q64x",240,"118.csv","","1810.8999999761581","resources/trios/L2T2A3.jpg","38","restless",0.6,0.5,0.4,0.0254829832715762,"true"
"image-keyboard-response",285,312168,"0.0-3.91-1.91","ugakguc6o78q64x",240,"118.csv","","null","resources/maskTrios/BT2B.jpg","null","",NA,NA,NA,NA,""
"image-keyboard-response",286,313375,"0.0-3.91-2.91","ugakguc6o78q64x",240,"118.csv","","null","resources/images/coin2.png","null","",NA,NA,NA,NA,""
"image-keyboard-response",287,313954,"0.0-3.92-0.92","ugakguc6o78q64x",240,"118.csv","","576.8000000715256","resources/trios/L4T2A2.jpg","38","restless",0.6,0.5,0.4,0.687303962536293,"false"
"image-keyboard-response",288,314361,"0.0-3.92-1.92","ugakguc6o78q64x",240,"118.csv","","null","resources/maskTrios/BT2B.jpg","null","",NA,NA,NA,NA,""
"image-keyboard-response",289,315568,"0.0-3.92-2.92","ugakguc6o78q64x",240,"118.csv","","null","resources/images/fishbone.png","null","",NA,NA,NA,NA,""
"image-keyboard-response",290,316547,"0.0-3.93-0.93","ugakguc6o78q64x",240,"118.csv","","976.6000000238419","resources/trios/L2T4A2.jpg","37","restless",0.6,0.5,0.4,0.342363478978686,"true"
"image-keyboard-response",291,316949,"0.0-3.93-1.93","ugakguc6o78q64x",240,"118.csv","","null","resources/maskTrios/L2BB.jpg","null","",NA,NA,NA,NA,""
"image-keyboard-response",292,318152,"0.0-3.93-2.93","ugakguc6o78q64x",240,"118.csv","","null","resources/images/coin2.png","null","",NA,NA,NA,NA,""
"image-keyboard-response",293,319531,"0.0-3.94-0.94","ugakguc6o78q64x",240,"118.csv","","1377.1999999284744","resources/trios/L2T2A2.jpg","37","restless",0.6,0.5,0.4,0.770080590463629,"false"
"image-keyboard-response",294,319938,"0.0-3.94-1.94","ugakguc6o78q64x",240,"118.csv","","null","resources/maskTrios/L2BB.jpg","null","",NA,NA,NA,NA,""
"image-keyboard-response",295,321145,"0.0-3.94-2.94","ugakguc6o78q64x",240,"118.csv","","null","resources/images/fishbone.png","null","",NA,NA,NA,NA,""
"image-keyboard-response",296,323196,"0.0-3.95-0.95","ugakguc6o78q64x",240,"118.csv","","2049.2999999523163","resources/trios/L2T4A2.jpg","38","restless",0.7,0.5,0.5,0.238942152646211,"true"
"image-keyboard-response",297,323604,"0.0-3.95-1.95","ugakguc6o78q64x",240,"118.csv","","null","resources/maskTrios/BT4B.jpg","null","",NA,NA,NA,NA,""
"image-keyboard-response",298,324811,"0.0-3.95-2.95","ugakguc6o78q64x",240,"118.csv","","null","resources/images/coin2.png","null","",NA,NA,NA,NA,""
"image-keyboard-response",299,326110,"0.0-3.96-0.96","ugakguc6o78q64x",240,"118.csv","","1297.1000000238419","resources/trios/L2T4A2.jpg","38","restless",0.7,0.5,0.5,0.537596141794408,"false"
"image-keyboard-response",300,326515,"0.0-3.96-1.96","ugakguc6o78q64x",240,"118.csv","","null","resources/maskTrios/BT4B.jpg","null","",NA,NA,NA,NA,""
"image-keyboard-response",301,327722,"0.0-3.96-2.96","ugakguc6o78q64x",240,"118.csv","","null","resources/images/fishbone.png","null","",NA,NA,NA,NA,""
"image-keyboard-response",302,328258,"0.0-3.97-0.97","ugakguc6o78q64x",240,"118.csv","","533.2999999523163","resources/trios/L2T4A2.jpg","38","restless",0.7,0.5,0.5,0.722907878398994,"false"
"image-keyboard-response",303,328665,"0.0-3.97-1.97","ugakguc6o78q64x",240,"118.csv","","null","resources/maskTrios/BT4B.jpg","null","",NA,NA,NA,NA,""
"image-keyboard-response",304,329872,"0.0-3.97-2.97","ugakguc6o78q64x",240,"118.csv","","null","resources/images/fishbone.png","null","",NA,NA,NA,NA,""
"image-keyboard-response",305,330249,"0.0-3.98-0.98","ugakguc6o78q64x",240,"118.csv","","374.2999999523163","resources/trios/L2T4A2.jpg","39","restless",0.7,0.5,0.5,0.0628672032335447,"true"
"image-keyboard-response",306,330656,"0.0-3.98-1.98","ugakguc6o78q64x",240,"118.csv","","null","resources/maskTrios/BBA2.jpg","null","",NA,NA,NA,NA,""
"image-keyboard-response",307,331863,"0.0-3.98-2.98","ugakguc6o78q64x",240,"118.csv","","null","resources/images/coin2.png","null","",NA,NA,NA,NA,""
"image-keyboard-response",308,332502,"0.0-3.99-0.99","ugakguc6o78q64x",240,"118.csv","","636.5999999046326","resources/trios/L4T4A3.jpg","39","restless",0.7,0.5,0.5,0.384078044352672,"true"
"image-keyboard-response",309,332908,"0.0-3.99-1.99","ugakguc6o78q64x",240,"118.csv","","null","resources/maskTrios/BBA3.jpg","null","",NA,NA,NA,NA,""
"image-keyboard-response",310,334115,"0.0-3.99-2.99","ugakguc6o78q64x",240,"118.csv","","null","resources/images/coin2.png","null","",NA,NA,NA,NA,""
"image-keyboard-response",311,335773,"0.0-3.100-0.100","ugakguc6o78q64x",240,"118.csv","","1655.5","resources/trios/L4T4A2.jpg","38","restless",0.7,0.5,0.6,0.612071575228029,"false"
"image-keyboard-response",312,336181,"0.0-3.100-1.100","ugakguc6o78q64x",240,"118.csv","","null","resources/maskTrios/BT4B.jpg","null","",NA,NA,NA,NA,""
"image-keyboard-response",313,337388,"0.0-3.100-2.100","ugakguc6o78q64x",240,"118.csv","","null","resources/images/fishbone.png","null","",NA,NA,NA,NA,""
"image-keyboard-response",314,338070,"0.0-3.101-0.101","ugakguc6o78q64x",240,"118.csv","","679.7999999523163","resources/trios/L4T2A3.jpg","39","restless",0.7,0.5,0.6,0.343682616949981,"true"
"image-keyboard-response",315,338477,"0.0-3.101-1.101","ugakguc6o78q64x",240,"118.csv","","null","resources/maskTrios/BBA3.jpg","null","",NA,NA,NA,NA,""
"image-keyboard-response",316,339684,"0.0-3.101-2.101","ugakguc6o78q64x",240,"118.csv","","null","resources/images/coin2.png","null","",NA,NA,NA,NA,""
"image-keyboard-response",317,340196,"0.0-3.102-0.102","ugakguc6o78q64x",240,"118.csv","","509.5","resources/trios/L4T2A3.jpg","39","restless",0.7,0.5,0.6,0.662250037819387,"false"
"image-keyboard-response",318,340603,"0.0-3.102-1.102","ugakguc6o78q64x",240,"118.csv","","null","resources/maskTrios/BBA3.jpg","null","",NA,NA,NA,NA,""
"image-keyboard-response",319,341806,"0.0-3.102-2.102","ugakguc6o78q64x",240,"118.csv","","null","resources/images/fishbone.png","null","",NA,NA,NA,NA,""
"image-keyboard-response",320,342110,"0.0-3.103-0.103","ugakguc6o78q64x",240,"118.csv","","301","resources/trios/L4T2A2.jpg","37","restless",0.7,0.5,0.6,0.960434614534024,"false"
"image-keyboard-response",321,342517,"0.0-3.103-1.103","ugakguc6o78q64x",240,"118.csv","","null","resources/maskTrios/L4BB.jpg","null","",NA,NA,NA,NA,""
"image-keyboard-response",322,343724,"0.0-3.103-2.103","ugakguc6o78q64x",240,"118.csv","","null","resources/images/fishbone.png","null","",NA,NA,NA,NA,""
"image-keyboard-response",323,344007,"0.0-3.104-0.104","ugakguc6o78q64x",240,"118.csv","","280.89999997615814","resources/trios/L4T4A2.jpg","38","restless",0.7,0.5,0.6,0.0138842594090915,"true"
"image-keyboard-response",324,344414,"0.0-3.104-1.104","ugakguc6o78q64x",240,"118.csv","","null","resources/maskTrios/BT4B.jpg","null","",NA,NA,NA,NA,""
"image-keyboard-response",325,345621,"0.0-3.104-2.104","ugakguc6o78q64x",240,"118.csv","","null","resources/images/coin2.png","null","",NA,NA,NA,NA,""
"image-keyboard-response",326,346001,"0.0-3.105-0.105","ugakguc6o78q64x",240,"118.csv","","376.2999999523163","resources/trios/L2T2A2.jpg","39","restless",0.7,0.5,0.6,0.0798891414397476,"true"
"image-keyboard-response",327,346408,"0.0-3.105-1.105","ugakguc6o78q64x",240,"118.csv","","null","resources/maskTrios/BBA2.jpg","null","",NA,NA,NA,NA,""
"image-keyboard-response",328,347615,"0.0-3.105-2.105","ugakguc6o78q64x",240,"118.csv","","null","resources/images/coin2.png","null","",NA,NA,NA,NA,""
"image-keyboard-response",329,347896,"0.0-3.106-0.106","ugakguc6o78q64x",240,"118.csv","","278.60000002384186","resources/trios/L4T2A2.jpg","38","restless",0.7,0.5,0.6,0.990161750026352,"false"
"image-keyboard-response",330,348303,"0.0-3.106-1.106","ugakguc6o78q64x",240,"118.csv","","null","resources/maskTrios/BT2B.jpg","null","",NA,NA,NA,NA,""
"image-keyboard-response",331,349510,"0.0-3.106-2.106","ugakguc6o78q64x",240,"118.csv","","null","resources/images/fishbone.png","null","",NA,NA,NA,NA,""
"image-keyboard-response",332,349814,"0.0-3.107-0.107","ugakguc6o78q64x",240,"118.csv","","301.60000002384186","resources/trios/L4T4A2.jpg","39","restless",0.6,0.5,0.6,0.769591006428614,"false"
"image-keyboard-response",333,350218,"0.0-3.107-1.107","ugakguc6o78q64x",240,"118.csv","","null","resources/maskTrios/BBA2.jpg","null","",NA,NA,NA,NA,""
"image-keyboard-response",334,351425,"0.0-3.107-2.107","ugakguc6o78q64x",240,"118.csv","","null","resources/images/fishbone.png","null","",NA,NA,NA,NA,""
"image-keyboard-response",335,351963,"0.0-3.108-0.108","ugakguc6o78q64x",240,"118.csv","","535.6000000238419","resources/trios/L2T4A2.jpg","37","restless",0.6,0.5,0.6,0.262875135774256,"true"
"image-keyboard-response",336,352370,"0.0-3.108-1.108","ugakguc6o78q64x",240,"118.csv","","null","resources/maskTrios/L2BB.jpg","null","",NA,NA,NA,NA,""
"image-keyboard-response",337,353577,"0.0-3.108-2.108","ugakguc6o78q64x",240,"118.csv","","null","resources/images/coin2.png","null","",NA,NA,NA,NA,""
"image-keyboard-response",338,356250,"0.0-3.109-0.109","ugakguc6o78q64x",240,"118.csv","","2670.600000023842","resources/trios/L4T4A3.jpg","39","restless",0.6,0.5,0.6,0.93894110671363,"false"
"image-keyboard-response",339,356657,"0.0-3.109-1.109","ugakguc6o78q64x",240,"118.csv","","null","resources/maskTrios/BBA3.jpg","null","",NA,NA,NA,NA,""
"image-keyboard-response",340,357864,"0.0-3.109-2.109","ugakguc6o78q64x",240,"118.csv","","null","resources/images/fishbone.png","null","",NA,NA,NA,NA,""
"image-keyboard-response",341,358382,"0.0-3.110-0.110","ugakguc6o78q64x",240,"118.csv","","516","resources/trios/L2T2A3.jpg","39","restless",0.6,0.5,0.6,0.711764433429026,"false"
"image-keyboard-response",342,358790,"0.0-3.110-1.110","ugakguc6o78q64x",240,"118.csv","","null","resources/maskTrios/BBA3.jpg","null","",NA,NA,NA,NA,""
"image-keyboard-response",343,359997,"0.0-3.110-2.110","ugakguc6o78q64x",240,"118.csv","","null","resources/images/fishbone.png","null","",NA,NA,NA,NA,""
"image-keyboard-response",344,362028,"0.0-3.111-0.111","ugakguc6o78q64x",240,"118.csv","","2029.3000000715256","resources/trios/L2T4A2.jpg","37","restless",0.6,0.6,0.6,0.0480162347163995,"true"
"image-keyboard-response",345,362433,"0.0-3.111-1.111","ugakguc6o78q64x",240,"118.csv","","null","resources/maskTrios/L2BB.jpg","null","",NA,NA,NA,NA,""
"image-keyboard-response",346,363641,"0.0-3.111-2.111","ugakguc6o78q64x",240,"118.csv","","null","resources/images/coin2.png","null","",NA,NA,NA,NA,""
"image-keyboard-response",347,364263,"0.0-3.112-0.112","ugakguc6o78q64x",240,"118.csv","","620.5","resources/trios/L2T4A2.jpg","37","restless",0.6,0.6,0.5,0.376402685947889,"true"
"image-keyboard-response",348,364671,"0.0-3.112-1.112","ugakguc6o78q64x",240,"118.csv","","null","resources/maskTrios/L2BB.jpg","null","",NA,NA,NA,NA,""
"image-keyboard-response",349,365877,"0.0-3.112-2.112","ugakguc6o78q64x",240,"118.csv","","null","resources/images/coin2.png","null","",NA,NA,NA,NA,""
"image-keyboard-response",350,367722,"0.0-3.113-0.113","ugakguc6o78q64x",240,"118.csv","","1842.7000000476837","resources/trios/L4T2A3.jpg","38","restless",0.6,0.5,0.5,0.154429589424128,"true"
"image-keyboard-response",351,368126,"0.0-3.113-1.113","ugakguc6o78q64x",240,"118.csv","","null","resources/maskTrios/BT2B.jpg","null","",NA,NA,NA,NA,""
"image-keyboard-response",352,369333,"0.0-3.113-2.113","ugakguc6o78q64x",240,"118.csv","","null","resources/images/coin2.png","null","",NA,NA,NA,NA,""
"image-keyboard-response",353,370676,"0.0-3.114-0.114","ugakguc6o78q64x",240,"118.csv","","1341.0999999046326","resources/trios/L2T4A2.jpg","37","restless",0.6,0.5,0.5,0.387299857580291,"true"
"image-keyboard-response",354,371083,"0.0-3.114-1.114","ugakguc6o78q64x",240,"118.csv","","null","resources/maskTrios/L2BB.jpg","null","",NA,NA,NA,NA,""
"image-keyboard-response",355,372290,"0.0-3.114-2.114","ugakguc6o78q64x",240,"118.csv","","null","resources/images/coin2.png","null","",NA,NA,NA,NA,""
"image-keyboard-response",356,373635,"0.0-3.115-0.115","ugakguc6o78q64x",240,"118.csv","","1342.9000000953674","resources/trios/L4T4A2.jpg","39","restless",0.5,0.5,0.5,0.62164802746924,"false"
"image-keyboard-response",357,374043,"0.0-3.115-1.115","ugakguc6o78q64x",240,"118.csv","","null","resources/maskTrios/BBA2.jpg","null","",NA,NA,NA,NA,""
"image-keyboard-response",358,375250,"0.0-3.115-2.115","ugakguc6o78q64x",240,"118.csv","","null","resources/images/fishbone.png","null","",NA,NA,NA,NA,""
"image-keyboard-response",359,375854,"0.0-3.116-0.116","ugakguc6o78q64x",240,"118.csv","","601.8999999761581","resources/trios/L2T2A3.jpg","37","restless",0.5,0.5,0.5,0.682692580175615,"false"
"image-keyboard-response",360,376262,"0.0-3.116-1.116","ugakguc6o78q64x",240,"118.csv","","null","resources/maskTrios/L2BB.jpg","null","",NA,NA,NA,NA,""
"image-keyboard-response",361,377468,"0.0-3.116-2.116","ugakguc6o78q64x",240,"118.csv","","null","resources/images/fishbone.png","null","",NA,NA,NA,NA,""
"image-keyboard-response",362,378120,"0.0-3.117-0.117","ugakguc6o78q64x",240,"118.csv","","648.8999999761581","resources/trios/L2T2A2.jpg","38","restless",0.5,0.5,0.5,0.347758443664719,"true"
"image-keyboard-response",363,378527,"0.0-3.117-1.117","ugakguc6o78q64x",240,"118.csv","","null","resources/maskTrios/BT2B.jpg","null","",NA,NA,NA,NA,""
"image-keyboard-response",364,379734,"0.0-3.117-2.117","ugakguc6o78q64x",240,"118.csv","","null","resources/images/coin2.png","null","",NA,NA,NA,NA,""
"image-keyboard-response",365,380282,"0.0-3.118-0.118","ugakguc6o78q64x",240,"118.csv","","545.8999999761581","resources/trios/L4T2A2.jpg","38","restless",0.5,0.5,0.5,0.480922345043008,"true"
"image-keyboard-response",366,380690,"0.0-3.118-1.118","ugakguc6o78q64x",240,"118.csv","","null","resources/maskTrios/BT2B.jpg","null","",NA,NA,NA,NA,""
"image-keyboard-response",367,381897,"0.0-3.118-2.118","ugakguc6o78q64x",240,"118.csv","","null","resources/images/coin2.png","null","",NA,NA,NA,NA,""
"image-keyboard-response",368,383359,"0.0-3.119-0.119","ugakguc6o78q64x",240,"118.csv","","1460.1999999284744","resources/trios/L4T2A3.jpg","39","restless",0.5,0.5,0.5,0.729749066395597,"false"
"image-keyboard-response",369,383767,"0.0-3.119-1.119","ugakguc6o78q64x",240,"118.csv","","null","resources/maskTrios/BBA3.jpg","null","",NA,NA,NA,NA,""
"image-keyboard-response",370,384974,"0.0-3.119-2.119","ugakguc6o78q64x",240,"118.csv","","null","resources/images/fishbone.png","null","",NA,NA,NA,NA,""
"image-keyboard-response",371,386267,"0.0-3.120-0.120","ugakguc6o78q64x",240,"118.csv","","1291","resources/trios/L2T4A3.jpg","37","restless",0.4,0.5,0.6,0.985946120993448,"false"
"image-keyboard-response",372,386673,"0.0-3.120-1.120","ugakguc6o78q64x",240,"118.csv","","null","resources/maskTrios/L2BB.jpg","null","",NA,NA,NA,NA,""
"image-keyboard-response",373,387880,"0.0-3.120-2.120","ugakguc6o78q64x",240,"118.csv","","null","resources/images/fishbone.png","null","",NA,NA,NA,NA,""
"image-keyboard-response",374,388749,"0.0-3.121-0.121","ugakguc6o78q64x",240,"118.csv","","866.7999999523163","resources/trios/L2T4A3.jpg","39","restless",0.4,0.5,0.6,0.132584936006886,"true"
"image-keyboard-response",375,389156,"0.0-3.121-1.121","ugakguc6o78q64x",240,"118.csv","","null","resources/maskTrios/BBA3.jpg","null","",NA,NA,NA,NA,""
"image-keyboard-response",376,390363,"0.0-3.121-2.121","ugakguc6o78q64x",240,"118.csv","","null","resources/images/coin2.png","null","",NA,NA,NA,NA,""
"image-keyboard-response",377,391589,"0.0-3.122-0.122","ugakguc6o78q64x",240,"118.csv","","1223.3000000715256","resources/trios/L2T4A3.jpg","39","restless",0.4,0.5,0.6,0.063324566199416,"true"
"image-keyboard-response",378,391996,"0.0-3.122-1.122","ugakguc6o78q64x",240,"118.csv","","null","resources/maskTrios/BBA3.jpg","null","",NA,NA,NA,NA,""
"image-keyboard-response",379,393203,"0.0-3.122-2.122","ugakguc6o78q64x",240,"118.csv","","null","resources/images/coin2.png","null","",NA,NA,NA,NA,""
"image-keyboard-response",380,394129,"0.0-3.123-0.123","ugakguc6o78q64x",240,"118.csv","","923.5999999046326","resources/trios/L2T4A2.jpg","37","restless",0.4,0.5,0.6,0.813386350843871,"false"
"image-keyboard-response",381,394536,"0.0-3.123-1.123","ugakguc6o78q64x",240,"118.csv","","null","resources/maskTrios/L2BB.jpg","null","",NA,NA,NA,NA,""
"image-keyboard-response",382,395743,"0.0-3.123-2.123","ugakguc6o78q64x",240,"118.csv","","null","resources/images/fishbone.png","null","",NA,NA,NA,NA,""
"image-keyboard-response",383,397952,"0.0-3.124-0.124","ugakguc6o78q64x",240,"118.csv","","2206.6999999284744","resources/trios/L2T2A2.jpg","38","restless",0.4,0.5,0.7,0.911802838313082,"false"
"image-keyboard-response",384,398359,"0.0-3.124-1.124","ugakguc6o78q64x",240,"118.csv","","null","resources/maskTrios/BT2B.jpg","null","",NA,NA,NA,NA,""
"image-keyboard-response",385,399566,"0.0-3.124-2.124","ugakguc6o78q64x",240,"118.csv","","null","resources/images/fishbone.png","null","",NA,NA,NA,NA,""
"image-keyboard-response",386,401251,"0.0-3.125-0.125","ugakguc6o78q64x",240,"118.csv","","1683.6000000238419","resources/trios/L4T2A2.jpg","39","restless",0.3,0.5,0.7,0.783639434676433,"false"
"image-keyboard-response",387,401658,"0.0-3.125-1.125","ugakguc6o78q64x",240,"118.csv","","null","resources/maskTrios/BBA2.jpg","null","",NA,NA,NA,NA,""
"image-keyboard-response",388,402865,"0.0-3.125-2.125","ugakguc6o78q64x",240,"118.csv","","null","resources/images/fishbone.png","null","",NA,NA,NA,NA,""
"image-keyboard-response",389,403168,"0.0-3.126-0.126","ugakguc6o78q64x",240,"118.csv","","300.3000000715256","resources/trios/L4T2A2.jpg","38","restless",0.3,0.5,0.7,0.36976643979098,"true"
"image-keyboard-response",390,403574,"0.0-3.126-1.126","ugakguc6o78q64x",240,"118.csv","","null","resources/maskTrios/BT2B.jpg","null","",NA,NA,NA,NA,""
"image-keyboard-response",391,404778,"0.0-3.126-2.126","ugakguc6o78q64x",240,"118.csv","","null","resources/images/coin2.png","null","",NA,NA,NA,NA,""
"image-keyboard-response",392,405797,"0.0-3.127-0.127","ugakguc6o78q64x",240,"118.csv","","1016.7000000476837","resources/trios/L2T2A2.jpg","38","restless",0.3,0.5,0.7,0.866004252914823,"false"
"image-keyboard-response",393,406204,"0.0-3.127-1.127","ugakguc6o78q64x",240,"118.csv","","null","resources/maskTrios/BT2B.jpg","null","",NA,NA,NA,NA,""
"image-keyboard-response",394,407411,"0.0-3.127-2.127","ugakguc6o78q64x",240,"118.csv","","null","resources/images/fishbone.png","null","",NA,NA,NA,NA,""
"image-keyboard-response",395,407919,"0.0-3.128-0.128","ugakguc6o78q64x",240,"118.csv","","506.3000000715256","resources/trios/L2T4A2.jpg","37","restless",0.3,0.5,0.7,0.713328423701653,"false"
"image-keyboard-response",396,408326,"0.0-3.128-1.128","ugakguc6o78q64x",240,"118.csv","","null","resources/maskTrios/L2BB.jpg","null","",NA,NA,NA,NA,""
"image-keyboard-response",397,409533,"0.0-3.128-2.128","ugakguc6o78q64x",240,"118.csv","","null","resources/images/fishbone.png","null","",NA,NA,NA,NA,""
"image-keyboard-response",398,409919,"0.0-3.129-0.129","ugakguc6o78q64x",240,"118.csv","","383.90000009536743","resources/trios/L4T4A3.jpg","37","restless",0.3,0.5,0.7,0.586647091568259,"false"
"image-keyboard-response",399,410326,"0.0-3.129-1.129","ugakguc6o78q64x",240,"118.csv","","null","resources/maskTrios/L4BB.jpg","null","",NA,NA,NA,NA,""
"image-keyboard-response",400,411533,"0.0-3.129-2.129","ugakguc6o78q64x",240,"118.csv","","null","resources/images/fishbone.png","null","",NA,NA,NA,NA,""
"image-keyboard-response",401,411989,"0.0-3.130-0.130","ugakguc6o78q64x",240,"118.csv","","454.39999997615814","resources/trios/L2T2A3.jpg","39","restless",0.3,0.5,0.7,0.797395084742031,"false"
"image-keyboard-response",402,412393,"0.0-3.130-1.130","ugakguc6o78q64x",240,"118.csv","","null","resources/maskTrios/BBA3.jpg","null","",NA,NA,NA,NA,""
"image-keyboard-response",403,413600,"0.0-3.130-2.130","ugakguc6o78q64x",240,"118.csv","","null","resources/images/fishbone.png","null","",NA,NA,NA,NA,""
"image-keyboard-response",404,414128,"0.0-3.131-0.131","ugakguc6o78q64x",240,"118.csv","","525.8999999761581","resources/trios/L4T4A2.jpg","38","restless",0.3,0.5,0.7,0.111699902965365,"true"
"image-keyboard-response",405,414535,"0.0-3.131-1.131","ugakguc6o78q64x",240,"118.csv","","null","resources/maskTrios/BT4B.jpg","null","",NA,NA,NA,NA,""
"image-keyboard-response",406,415741,"0.0-3.131-2.131","ugakguc6o78q64x",240,"118.csv","","null","resources/images/coin2.png","null","",NA,NA,NA,NA,""
"image-keyboard-response",407,416612,"0.0-3.132-0.132","ugakguc6o78q64x",240,"118.csv","","869.3999999761581","resources/trios/L2T2A3.jpg","39","restless",0.3,0.4,0.7,0.151841609649013,"true"
"image-keyboard-response",408,417019,"0.0-3.132-1.132","ugakguc6o78q64x",240,"118.csv","","null","resources/maskTrios/BBA3.jpg","null","",NA,NA,NA,NA,""
"image-keyboard-response",409,418227,"0.0-3.132-2.132","ugakguc6o78q64x",240,"118.csv","","null","resources/images/coin2.png","null","",NA,NA,NA,NA,""
"image-keyboard-response",410,419265,"0.0-3.133-0.133","ugakguc6o78q64x",240,"118.csv","","1036.6000000238419","resources/trios/L4T4A3.jpg","39","restless",0.3,0.4,0.7,0.989850583844417,"false"
"image-keyboard-response",411,419670,"0.0-3.133-1.133","ugakguc6o78q64x",240,"118.csv","","null","resources/maskTrios/BBA3.jpg","null","",NA,NA,NA,NA,""
"image-keyboard-response",412,420873,"0.0-3.133-2.133","ugakguc6o78q64x",240,"118.csv","","null","resources/images/fishbone.png","null","",NA,NA,NA,NA,""
"image-keyboard-response",413,421356,"0.0-3.134-0.134","ugakguc6o78q64x",240,"118.csv","","481.1999999284744","resources/trios/L4T4A2.jpg","39","restless",0.3,0.4,0.7,0.392176978027726,"true"
"image-keyboard-response",414,421761,"0.0-3.134-1.134","ugakguc6o78q64x",240,"118.csv","","null","resources/maskTrios/BBA2.jpg","null","",NA,NA,NA,NA,""
"image-keyboard-response",415,422968,"0.0-3.134-2.134","ugakguc6o78q64x",240,"118.csv","","null","resources/images/coin2.png","null","",NA,NA,NA,NA,""
"image-keyboard-response",416,424093,"0.0-3.135-0.135","ugakguc6o78q64x",240,"118.csv","","1121.1000000238419","resources/trios/L2T4A3.jpg","37","restless",0.2,0.4,0.7,0.633853439381832,"false"
"image-keyboard-response",417,424500,"0.0-3.135-1.135","ugakguc6o78q64x",240,"118.csv","","null","resources/maskTrios/L2BB.jpg","null","",NA,NA,NA,NA,""
"image-keyboard-response",418,425707,"0.0-3.135-2.135","ugakguc6o78q64x",240,"118.csv","","null","resources/images/fishbone.png","null","",NA,NA,NA,NA,""
"image-keyboard-response",419,426250,"0.0-3.136-0.136","ugakguc6o78q64x",240,"118.csv","","541.3999999761581","resources/trios/L4T4A2.jpg","39","restless",0.2,0.4,0.7,0.538950601512309,"true"
"image-keyboard-response",420,426655,"0.0-3.136-1.136","ugakguc6o78q64x",240,"118.csv","","null","resources/maskTrios/BBA2.jpg","null","",NA,NA,NA,NA,""
"image-keyboard-response",421,427862,"0.0-3.136-2.136","ugakguc6o78q64x",240,"118.csv","","null","resources/images/coin2.png","null","",NA,NA,NA,NA,""
"image-keyboard-response",422,429113,"0.0-3.137-0.137","ugakguc6o78q64x",240,"118.csv","","1249.2000000476837","resources/trios/L2T2A2.jpg","37","restless",0.2,0.4,0.8,0.580791915241146,"false"
"image-keyboard-response",423,429520,"0.0-3.137-1.137","ugakguc6o78q64x",240,"118.csv","","null","resources/maskTrios/L2BB.jpg","null","",NA,NA,NA,NA,""
"image-keyboard-response",424,430727,"0.0-3.137-2.137","ugakguc6o78q64x",240,"118.csv","","null","resources/images/fishbone.png","null","",NA,NA,NA,NA,""
"image-keyboard-response",425,432183,"0.0-3.138-0.138","ugakguc6o78q64x",240,"118.csv","","1453.7000000476837","resources/trios/L2T4A3.jpg","38","restless",0.2,0.3,0.8,0.48526957336769,"false"
"image-keyboard-response",426,432590,"0.0-3.138-1.138","ugakguc6o78q64x",240,"118.csv","","null","resources/maskTrios/BT4B.jpg","null","",NA,NA,NA,NA,""
"image-keyboard-response",427,433796,"0.0-3.138-2.138","ugakguc6o78q64x",240,"118.csv","","null","resources/images/fishbone.png","null","",NA,NA,NA,NA,""
"image-keyboard-response",428,434218,"0.0-3.139-0.139","ugakguc6o78q64x",240,"118.csv","","419.3000000715256","resources/trios/L2T4A3.jpg","38","restless",0.2,0.3,0.8,0.275207275919742,"true"
"image-keyboard-response",429,434623,"0.0-3.139-1.139","ugakguc6o78q64x",240,"118.csv","","null","resources/maskTrios/BT4B.jpg","null","",NA,NA,NA,NA,""
"image-keyboard-response",430,435830,"0.0-3.139-2.139","ugakguc6o78q64x",240,"118.csv","","null","resources/images/coin2.png","null","",NA,NA,NA,NA,""
"image-keyboard-response",431,436525,"0.0-3.140-0.140","ugakguc6o78q64x",240,"118.csv","","693.2999999523163","resources/trios/L2T2A2.jpg","38","restless",0.2,0.3,0.8,0.757832188988418,"false"
"image-keyboard-response",432,436928,"0.0-3.140-1.140","ugakguc6o78q64x",240,"118.csv","","null","resources/maskTrios/BT2B.jpg","null","",NA,NA,NA,NA,""
"image-keyboard-response",433,438132,"0.0-3.140-2.140","ugakguc6o78q64x",240,"118.csv","","null","resources/images/fishbone.png","null","",NA,NA,NA,NA,""
"image-keyboard-response",434,438838,"0.0-3.141-0.141","ugakguc6o78q64x",240,"118.csv","","704.6000000238419","resources/trios/L2T4A3.jpg","38","restless",0.2,0.3,0.9,0.859957785080625,"false"
"image-keyboard-response",435,439245,"0.0-3.141-1.141","ugakguc6o78q64x",240,"118.csv","","null","resources/maskTrios/BT4B.jpg","null","",NA,NA,NA,NA,""
"image-keyboard-response",436,440452,"0.0-3.141-2.141","ugakguc6o78q64x",240,"118.csv","","null","resources/images/fishbone.png","null","",NA,NA,NA,NA,""
"image-keyboard-response",437,441119,"0.0-3.142-0.142","ugakguc6o78q64x",240,"118.csv","","665.0999999046326","resources/trios/L2T2A3.jpg","39","restless",0.2,0.3,0.9,0.211433699597415,"true"
"image-keyboard-response",438,441527,"0.0-3.142-1.142","ugakguc6o78q64x",240,"118.csv","","null","resources/maskTrios/BBA3.jpg","null","",NA,NA,NA,NA,""
"image-keyboard-response",439,442734,"0.0-3.142-2.142","ugakguc6o78q64x",240,"118.csv","","null","resources/images/coin2.png","null","",NA,NA,NA,NA,""
"image-keyboard-response",440,444041,"0.0-3.143-0.143","ugakguc6o78q64x",240,"118.csv","","1305.1999999284744","resources/trios/L4T4A3.jpg","38","restless",0.2,0.3,0.9,0.983786168220244,"false"
"image-keyboard-response",441,444448,"0.0-3.143-1.143","ugakguc6o78q64x",240,"118.csv","","null","resources/maskTrios/BT4B.jpg","null","",NA,NA,NA,NA,""
"image-keyboard-response",442,445655,"0.0-3.143-2.143","ugakguc6o78q64x",240,"118.csv","","null","resources/images/fishbone.png","null","",NA,NA,NA,NA,""
"image-keyboard-response",443,446546,"0.0-3.144-0.144","ugakguc6o78q64x",240,"118.csv","","888.6999999284744","resources/trios/L2T2A3.jpg","39","restless",0.2,0.3,0.9,0.36201836345163,"true"
"image-keyboard-response",444,446952,"0.0-3.144-1.144","ugakguc6o78q64x",240,"118.csv","","null","resources/maskTrios/BBA3.jpg","null","",NA,NA,NA,NA,""
"image-keyboard-response",445,448159,"0.0-3.144-2.144","ugakguc6o78q64x",240,"118.csv","","null","resources/images/coin2.png","null","",NA,NA,NA,NA,""
"image-keyboard-response",446,452602,"0.0-3.145-0.145","ugakguc6o78q64x",240,"118.csv","","4440.899999976158","resources/trios/L4T2A2.jpg","38","restless",0.2,0.3,0.9,0.861994116102524,"false"
"image-keyboard-response",447,453008,"0.0-3.145-1.145","ugakguc6o78q64x",240,"118.csv","","null","resources/maskTrios/BT2B.jpg","null","",NA,NA,NA,NA,""
"image-keyboard-response",448,454211,"0.0-3.145-2.145","ugakguc6o78q64x",240,"118.csv","","null","resources/images/fishbone.png","null","",NA,NA,NA,NA,""
"image-keyboard-response",449,455555,"0.0-3.146-0.146","ugakguc6o78q64x",240,"118.csv","","1341.7999999523163","resources/trios/L4T4A3.jpg","38","restless",0.2,0.2,0.9,0.912776170770588,"false"
"image-keyboard-response",450,455962,"0.0-3.146-1.146","ugakguc6o78q64x",240,"118.csv","","null","resources/maskTrios/BT4B.jpg","null","",NA,NA,NA,NA,""
"image-keyboard-response",451,457169,"0.0-3.146-2.146","ugakguc6o78q64x",240,"118.csv","","null","resources/images/fishbone.png","null","",NA,NA,NA,NA,""
"image-keyboard-response",452,458195,"0.0-3.147-0.147","ugakguc6o78q64x",240,"118.csv","","1023.1999999284744","resources/trios/L4T2A3.jpg","39","restless",0.2,0.2,0.9,0.993609318851234,"false"
"image-keyboard-response",453,458602,"0.0-3.147-1.147","ugakguc6o78q64x",240,"118.csv","","null","resources/maskTrios/BBA3.jpg","null","",NA,NA,NA,NA,""
"image-keyboard-response",454,459809,"0.0-3.147-2.147","ugakguc6o78q64x",240,"118.csv","","null","resources/images/fishbone.png","null","",NA,NA,NA,NA,""
"image-keyboard-response",455,460773,"0.0-3.148-0.148","ugakguc6o78q64x",240,"118.csv","","962.3999999761581","resources/trios/L2T4A3.jpg","37","restless",0.2,0.2,0.9,0.08591655082738,"true"
"image-keyboard-response",456,461180,"0.0-3.148-1.148","ugakguc6o78q64x",240,"118.csv","","null","resources/maskTrios/L2BB.jpg","null","",NA,NA,NA,NA,""
"image-keyboard-response",457,462386,"0.0-3.148-2.148","ugakguc6o78q64x",240,"118.csv","","null","resources/images/coin2.png","null","",NA,NA,NA,NA,""
"image-keyboard-response",458,463287,"0.0-3.149-0.149","ugakguc6o78q64x",240,"118.csv","","899.2000000476837","resources/trios/L4T2A3.jpg","39","restless",0.2,0.2,0.9,0.388531377383483,"true"
"image-keyboard-response",459,463695,"0.0-3.149-1.149","ugakguc6o78q64x",240,"118.csv","","null","resources/maskTrios/BBA3.jpg","null","",NA,NA,NA,NA,""
"image-keyboard-response",460,464902,"0.0-3.149-2.149","ugakguc6o78q64x",240,"118.csv","","null","resources/images/coin2.png","null","",NA,NA,NA,NA,""
"image-keyboard-response",461,466217,"0.0-3.150-0.150","ugakguc6o78q64x",240,"118.csv","","1312.2000000476837","resources/trios/L2T4A2.jpg","38","restless",0.2,0.3,0.9,0.836785122642521,"false"
"image-keyboard-response",462,466621,"0.0-3.150-1.150","ugakguc6o78q64x",240,"118.csv","","null","resources/maskTrios/BT4B.jpg","null","",NA,NA,NA,NA,""
"image-keyboard-response",463,467828,"0.0-3.150-2.150","ugakguc6o78q64x",240,"118.csv","","null","resources/images/fishbone.png","null","",NA,NA,NA,NA,""
"image-keyboard-response",464,469417,"0.0-3.151-0.151","ugakguc6o78q64x",240,"118.csv","","1587.1000000238419","resources/trios/L4T4A3.jpg","38","restless",0.2,0.3,0.9,0.171515900996743,"true"
"image-keyboard-response",465,469825,"0.0-3.151-1.151","ugakguc6o78q64x",240,"118.csv","","null","resources/maskTrios/BT4B.jpg","null","",NA,NA,NA,NA,""
"image-keyboard-response",466,471032,"0.0-3.151-2.151","ugakguc6o78q64x",240,"118.csv","","null","resources/images/coin2.png","null","",NA,NA,NA,NA,""
"image-keyboard-response",467,472005,"0.0-3.152-0.152","ugakguc6o78q64x",240,"118.csv","","971.1000000238419","resources/trios/L2T4A2.jpg","37","restless",0.2,0.3,0.9,0.425886000576913,"false"
"image-keyboard-response",468,472413,"0.0-3.152-1.152","ugakguc6o78q64x",240,"118.csv","","null","resources/maskTrios/L2BB.jpg","null","",NA,NA,NA,NA,""
"image-keyboard-response",469,473617,"0.0-3.152-2.152","ugakguc6o78q64x",240,"118.csv","","null","resources/images/fishbone.png","null","",NA,NA,NA,NA,""
"image-keyboard-response",470,474762,"0.0-3.153-0.153","ugakguc6o78q64x",240,"118.csv","","1143.2999999523163","resources/trios/L4T2A2.jpg","38","restless",0.2,0.3,0.9,0.662287947305285,"false"
"image-keyboard-response",471,475170,"0.0-3.153-1.153","ugakguc6o78q64x",240,"118.csv","","null","resources/maskTrios/BT2B.jpg","null","",NA,NA,NA,NA,""
"image-keyboard-response",472,476372,"0.0-3.153-2.153","ugakguc6o78q64x",240,"118.csv","","null","resources/images/fishbone.png","null","",NA,NA,NA,NA,""
"image-keyboard-response",473,477053,"0.0-3.154-0.154","ugakguc6o78q64x",240,"118.csv","","679","resources/trios/L4T2A3.jpg","39","restless",0.3,0.3,0.9,0.897675664153442,"true"
"image-keyboard-response",474,477458,"0.0-3.154-1.154","ugakguc6o78q64x",240,"118.csv","","null","resources/maskTrios/BBA3.jpg","null","",NA,NA,NA,NA,""
"image-keyboard-response",475,478665,"0.0-3.154-2.154","ugakguc6o78q64x",240,"118.csv","","null","resources/images/coin2.png","null","",NA,NA,NA,NA,""
"image-keyboard-response",476,480385,"0.0-3.155-0.155","ugakguc6o78q64x",240,"118.csv","","1717.6000000238419","resources/trios/L2T4A3.jpg","37","restless",0.3,0.3,0.9,0.505332544530881,"false"
"image-keyboard-response",477,480792,"0.0-3.155-1.155","ugakguc6o78q64x",240,"118.csv","","null","resources/maskTrios/L2BB.jpg","null","",NA,NA,NA,NA,""
"image-keyboard-response",478,481998,"0.0-3.155-2.155","ugakguc6o78q64x",240,"118.csv","","null","resources/images/fishbone.png","null","",NA,NA,NA,NA,""
"image-keyboard-response",479,483772,"0.0-3.156-0.156","ugakguc6o78q64x",240,"118.csv","","1771.7999999523163","resources/trios/L4T4A2.jpg","37","restless",0.3,0.3,0.9,0.754931831178386,"false"
"image-keyboard-response",480,484179,"0.0-3.156-1.156","ugakguc6o78q64x",240,"118.csv","","null","resources/maskTrios/L4BB.jpg","null","",NA,NA,NA,NA,""
"image-keyboard-response",481,485386,"0.0-3.156-2.156","ugakguc6o78q64x",240,"118.csv","","null","resources/images/fishbone.png","null","",NA,NA,NA,NA,""
"image-keyboard-response",482,485779,"0.0-3.157-0.157","ugakguc6o78q64x",240,"118.csv","","390.60000002384186","resources/trios/L2T4A2.jpg","37","restless",0.3,0.3,0.9,0.488988919856797,"false"
"image-keyboard-response",483,486186,"0.0-3.157-1.157","ugakguc6o78q64x",240,"118.csv","","null","resources/maskTrios/L2BB.jpg","null","",NA,NA,NA,NA,""
"image-keyboard-response",484,487393,"0.0-3.157-2.157","ugakguc6o78q64x",240,"118.csv","","null","resources/images/fishbone.png","null","",NA,NA,NA,NA,""
"image-keyboard-response",485,487653,"0.0-3.158-0.158","ugakguc6o78q64x",240,"118.csv","","257.3000000715256","resources/trios/L4T2A3.jpg","37","restless",0.3,0.3,0.9,0.267567305996315,"true"
"image-keyboard-response",486,488060,"0.0-3.158-1.158","ugakguc6o78q64x",240,"118.csv","","null","resources/maskTrios/L4BB.jpg","null","",NA,NA,NA,NA,""
"image-keyboard-response",487,489263,"0.0-3.158-2.158","ugakguc6o78q64x",240,"118.csv","","null","resources/images/coin2.png","null","",NA,NA,NA,NA,""
"image-keyboard-response",488,489946,"0.0-3.159-0.159","ugakguc6o78q64x",240,"118.csv","","681.3999999761581","resources/trios/L4T2A2.jpg","37","restless",0.4,0.3,0.9,0.906489804240781,"false"
"image-keyboard-response",489,490355,"0.0-3.159-1.159","ugakguc6o78q64x",240,"118.csv","","null","resources/maskTrios/L4BB.jpg","null","",NA,NA,NA,NA,""
"image-keyboard-response",490,491561,"0.0-3.159-2.159","ugakguc6o78q64x",240,"118.csv","","null","resources/images/fishbone.png","null","",NA,NA,NA,NA,""
"image-keyboard-response",491,491888,"0.0-3.160-0.160","ugakguc6o78q64x",240,"118.csv","","324.2999999523163","resources/trios/L4T2A3.jpg","38","restless",0.5,0.3,0.9,0.0931146029584298,"true"
"image-keyboard-response",492,492295,"0.0-3.160-1.160","ugakguc6o78q64x",240,"118.csv","","null","resources/maskTrios/BT2B.jpg","null","",NA,NA,NA,NA,""
"image-keyboard-response",493,493503,"0.0-3.160-2.160","ugakguc6o78q64x",240,"118.csv","","null","resources/images/coin2.png","null","",NA,NA,NA,NA,""
"image-keyboard-response",494,494103,"0.0-3.161-0.161","ugakguc6o78q64x",240,"118.csv","","597.8000000715256","resources/trios/L2T2A2.jpg","39","restless",0.5,0.3,0.9,0.522785682593496,"true"
"image-keyboard-response",495,494509,"0.0-3.161-1.161","ugakguc6o78q64x",240,"118.csv","","null","resources/maskTrios/BBA2.jpg","null","",NA,NA,NA,NA,""
"image-keyboard-response",496,495716,"0.0-3.161-2.161","ugakguc6o78q64x",240,"118.csv","","null","resources/images/coin2.png","null","",NA,NA,NA,NA,""
"image-keyboard-response",497,496017,"0.0-3.162-0.162","ugakguc6o78q64x",240,"118.csv","","298.10000002384186","resources/trios/L2T4A2.jpg","37","restless",0.5,0.3,0.9,0.748906589509934,"false"
"image-keyboard-response",498,496424,"0.0-3.162-1.162","ugakguc6o78q64x",240,"118.csv","","null","resources/maskTrios/L2BB.jpg","null","",NA,NA,NA,NA,""
"image-keyboard-response",499,497628,"0.0-3.162-2.162","ugakguc6o78q64x",240,"118.csv","","null","resources/images/fishbone.png","null","",NA,NA,NA,NA,""
"image-keyboard-response",500,497906,"0.0-3.163-0.163","ugakguc6o78q64x",240,"118.csv","","276","resources/trios/L4T4A3.jpg","38","restless",0.5,0.3,0.8,0.569233351467251,"false"
"image-keyboard-response",501,498313,"0.0-3.163-1.163","ugakguc6o78q64x",240,"118.csv","","null","resources/maskTrios/BT4B.jpg","null","",NA,NA,NA,NA,""
"image-keyboard-response",502,499520,"0.0-3.163-2.163","ugakguc6o78q64x",240,"118.csv","","null","resources/images/fishbone.png","null","",NA,NA,NA,NA,""
"image-keyboard-response",503,501139,"0.0-3.164-0.164","ugakguc6o78q64x",240,"118.csv","","1616.5","resources/trios/L2T2A2.jpg","37","restless",0.5,0.3,0.8,0.339964091485235,"true"
"image-keyboard-response",504,501546,"0.0-3.164-1.164","ugakguc6o78q64x",240,"118.csv","","null","resources/maskTrios/L2BB.jpg","null","",NA,NA,NA,NA,""
"image-keyboard-response",505,502752,"0.0-3.164-2.164","ugakguc6o78q64x",240,"118.csv","","null","resources/images/coin2.png","null","",NA,NA,NA,NA,""
"image-keyboard-response",506,504038,"0.0-3.165-0.165","ugakguc6o78q64x",240,"118.csv","","1284","resources/trios/L4T4A2.jpg","38","restless",0.5,0.3,0.8,0.354914363750751,"false"
"image-keyboard-response",507,504446,"0.0-3.165-1.165","ugakguc6o78q64x",240,"118.csv","","null","resources/maskTrios/BT4B.jpg","null","",NA,NA,NA,NA,""
"image-keyboard-response",508,505653,"0.0-3.165-2.165","ugakguc6o78q64x",240,"118.csv","","null","resources/images/fishbone.png","null","",NA,NA,NA,NA,""
"image-keyboard-response",509,506218,"0.0-3.166-0.166","ugakguc6o78q64x",240,"118.csv","","563","resources/trios/L4T4A3.jpg","39","restless",0.5,0.3,0.7,0.587867916132769,"true"
"image-keyboard-response",510,506626,"0.0-3.166-1.166","ugakguc6o78q64x",240,"118.csv","","null","resources/maskTrios/BBA3.jpg","null","",NA,NA,NA,NA,""
"image-keyboard-response",511,507833,"0.0-3.166-2.166","ugakguc6o78q64x",240,"118.csv","","null","resources/images/coin2.png","null","",NA,NA,NA,NA,""
"image-keyboard-response",512,509070,"0.0-3.167-0.167","ugakguc6o78q64x",240,"118.csv","","1234.0999999046326","resources/trios/L4T4A3.jpg","39","restless",0.5,0.4,0.7,0.846773863167471,"false"
"image-keyboard-response",513,509477,"0.0-3.167-1.167","ugakguc6o78q64x",240,"118.csv","","null","resources/maskTrios/BBA3.jpg","null","",NA,NA,NA,NA,""
"image-keyboard-response",514,510684,"0.0-3.167-2.167","ugakguc6o78q64x",240,"118.csv","","null","resources/images/fishbone.png","null","",NA,NA,NA,NA,""
"image-keyboard-response",515,512500,"0.0-3.168-0.168","ugakguc6o78q64x",240,"118.csv","","1814.1000000238419","resources/trios/L2T4A3.jpg","37","restless",0.5,0.4,0.7,0.0953142672726244,"true"
"image-keyboard-response",516,512907,"0.0-3.168-1.168","ugakguc6o78q64x",240,"118.csv","","null","resources/maskTrios/L2BB.jpg","null","",NA,NA,NA,NA,""
"image-keyboard-response",517,514115,"0.0-3.168-2.168","ugakguc6o78q64x",240,"118.csv","","null","resources/images/coin2.png","null","",NA,NA,NA,NA,""
"image-keyboard-response",518,515272,"0.0-3.169-0.169","ugakguc6o78q64x",240,"118.csv","","1155","resources/trios/L2T4A3.jpg","37","restless",0.5,0.4,0.7,0.429293357126439,"true"
"image-keyboard-response",519,515676,"0.0-3.169-1.169","ugakguc6o78q64x",240,"118.csv","","null","resources/maskTrios/L2BB.jpg","null","",NA,NA,NA,NA,""
"image-keyboard-response",520,516883,"0.0-3.169-2.169","ugakguc6o78q64x",240,"118.csv","","null","resources/images/coin2.png","null","",NA,NA,NA,NA,""
"image-keyboard-response",521,517916,"0.0-3.170-0.170","ugakguc6o78q64x",240,"118.csv","","1030.4000000953674","resources/trios/L2T2A2.jpg","37","restless",0.6,0.4,0.7,0.149770252488378,"true"
"image-keyboard-response",522,518323,"0.0-3.170-1.170","ugakguc6o78q64x",240,"118.csv","","null","resources/maskTrios/L2BB.jpg","null","",NA,NA,NA,NA,""
"image-keyboard-response",523,519530,"0.0-3.170-2.170","ugakguc6o78q64x",240,"118.csv","","null","resources/images/coin2.png","null","",NA,NA,NA,NA,""
"image-keyboard-response",524,520636,"0.0-3.171-0.171","ugakguc6o78q64x",240,"118.csv","","1103.1999999284744","resources/trios/L4T4A2.jpg","38","restless",0.6,0.4,0.7,0.916638808762545,"false"
"image-keyboard-response",525,521043,"0.0-3.171-1.171","ugakguc6o78q64x",240,"118.csv","","null","resources/maskTrios/BT4B.jpg","null","",NA,NA,NA,NA,""
"image-keyboard-response",526,522250,"0.0-3.171-2.171","ugakguc6o78q64x",240,"118.csv","","null","resources/images/fishbone.png","null","",NA,NA,NA,NA,""
"image-keyboard-response",527,523342,"0.0-3.172-0.172","ugakguc6o78q64x",240,"118.csv","","1088.1000000238419","resources/trios/L4T2A2.jpg","37","restless",0.6,0.4,0.6,0.560194290615544,"true"
"image-keyboard-response",528,523749,"0.0-3.172-1.172","ugakguc6o78q64x",240,"118.csv","","null","resources/maskTrios/L4BB.jpg","null","",NA,NA,NA,NA,""
"image-keyboard-response",529,524956,"0.0-3.172-2.172","ugakguc6o78q64x",240,"118.csv","","null","resources/images/coin2.png","null","",NA,NA,NA,NA,""
"image-keyboard-response",530,527617,"0.0-3.173-0.173","ugakguc6o78q64x",240,"118.csv","","2657.7999999523163","resources/trios/L2T2A3.jpg","39","restless",0.6,0.4,0.6,0.5343192250102,"true"
"image-keyboard-response",531,528024,"0.0-3.173-1.173","ugakguc6o78q64x",240,"118.csv","","null","resources/maskTrios/BBA3.jpg","null","",NA,NA,NA,NA,""
"image-keyboard-response",532,529231,"0.0-3.173-2.173","ugakguc6o78q64x",240,"118.csv","","null","resources/images/coin2.png","null","",NA,NA,NA,NA,""
"image-keyboard-response",533,530681,"0.0-3.174-0.174","ugakguc6o78q64x",240,"118.csv","","1448.2000000476837","resources/trios/L4T4A3.jpg","37","restless",0.6,0.5,0.6,0.541967671597505,"true"
"image-keyboard-response",534,531089,"0.0-3.174-1.174","ugakguc6o78q64x",240,"118.csv","","null","resources/maskTrios/L4BB.jpg","null","",NA,NA,NA,NA,""
"image-keyboard-response",535,532296,"0.0-3.174-2.174","ugakguc6o78q64x",240,"118.csv","","null","resources/images/coin2.png","null","",NA,NA,NA,NA,""
"image-keyboard-response",536,535469,"0.0-3.175-0.175","ugakguc6o78q64x",240,"118.csv","","3171","resources/trios/L4T2A2.jpg","37","restless",0.6,0.5,0.6,0.887358103436518,"false"
"image-keyboard-response",537,535876,"0.0-3.175-1.175","ugakguc6o78q64x",240,"118.csv","","null","resources/maskTrios/L4BB.jpg","null","",NA,NA,NA,NA,""
"image-keyboard-response",538,537084,"0.0-3.175-2.175","ugakguc6o78q64x",240,"118.csv","","null","resources/images/fishbone.png","null","",NA,NA,NA,NA,""
"image-keyboard-response",539,537895,"0.0-3.176-0.176","ugakguc6o78q64x",240,"118.csv","","809.1000000238419","resources/trios/L4T2A2.jpg","38","restless",0.5,0.5,0.6,0.690828011589296,"false"
"image-keyboard-response",540,538302,"0.0-3.176-1.176","ugakguc6o78q64x",240,"118.csv","","null","resources/maskTrios/BT2B.jpg","null","",NA,NA,NA,NA,""
"image-keyboard-response",541,539506,"0.0-3.176-2.176","ugakguc6o78q64x",240,"118.csv","","null","resources/images/fishbone.png","null","",NA,NA,NA,NA,""
"image-keyboard-response",542,540105,"0.0-3.177-0.177","ugakguc6o78q64x",240,"118.csv","","596.5","resources/trios/L4T4A3.jpg","39","restless",0.6,0.4,0.6,0.517869764781381,"true"
"image-keyboard-response",543,540512,"0.0-3.177-1.177","ugakguc6o78q64x",240,"118.csv","","null","resources/maskTrios/BBA3.jpg","null","",NA,NA,NA,NA,""
"image-keyboard-response",544,541717,"0.0-3.177-2.177","ugakguc6o78q64x",240,"118.csv","","null","resources/images/coin2.png","null","",NA,NA,NA,NA,""
"image-keyboard-response",545,542687,"0.0-3.178-0.178","ugakguc6o78q64x",240,"118.csv","","967.5","resources/trios/L4T2A2.jpg","38","restless",0.6,0.4,0.6,0.304469933774911,"true"
"image-keyboard-response",546,543093,"0.0-3.178-1.178","ugakguc6o78q64x",240,"118.csv","","null","resources/maskTrios/BT2B.jpg","null","",NA,NA,NA,NA,""
"image-keyboard-response",547,544300,"0.0-3.178-2.178","ugakguc6o78q64x",240,"118.csv","","null","resources/images/coin2.png","null","",NA,NA,NA,NA,""
"image-keyboard-response",548,544911,"0.0-3.179-0.179","ugakguc6o78q64x",240,"118.csv","","608.1000000238419","resources/trios/L2T2A2.jpg","37","restless",0.6,0.4,0.6,0.351748307420601,"true"
"image-keyboard-response",549,545318,"0.0-3.179-1.179","ugakguc6o78q64x",240,"118.csv","","null","resources/maskTrios/L2BB.jpg","null","",NA,NA,NA,NA,""
"image-keyboard-response",550,546521,"0.0-3.179-2.179","ugakguc6o78q64x",240,"118.csv","","null","resources/images/coin2.png","null","",NA,NA,NA,NA,""
"image-keyboard-response",551,547620,"0.0-3.180-0.180","ugakguc6o78q64x",240,"118.csv","","1096","resources/trios/L4T4A3.jpg","39","restless",0.6,0.4,0.6,0.671189664388266,"false"
"image-keyboard-response",552,548027,"0.0-3.180-1.180","ugakguc6o78q64x",240,"118.csv","","null","resources/maskTrios/BBA3.jpg","null","",NA,NA,NA,NA,""
"image-keyboard-response",553,549234,"0.0-3.180-2.180","ugakguc6o78q64x",240,"118.csv","","null","resources/images/fishbone.png","null","",NA,NA,NA,NA,""
"image-keyboard-response",554,549983,"0.0-3.181-0.181","ugakguc6o78q64x",240,"118.csv","","747.4000000953674","resources/trios/L2T4A2.jpg","37","restless",0.5,0.4,0.6,0.0236707169995083,"true"
"image-keyboard-response",555,550391,"0.0-3.181-1.181","ugakguc6o78q64x",240,"118.csv","","null","resources/maskTrios/L2BB.jpg","null","",NA,NA,NA,NA,""
"image-keyboard-response",556,551598,"0.0-3.181-2.181","ugakguc6o78q64x",240,"118.csv","","null","resources/images/coin2.png","null","",NA,NA,NA,NA,""
"image-keyboard-response",557,552698,"0.0-3.182-0.182","ugakguc6o78q64x",240,"118.csv","","1097.2000000476837","resources/trios/L2T2A3.jpg","39","restless",0.5,0.5,0.6,0.549983263576526,"true"
"image-keyboard-response",558,553105,"0.0-3.182-1.182","ugakguc6o78q64x",240,"118.csv","","null","resources/maskTrios/BBA3.jpg","null","",NA,NA,NA,NA,""
"image-keyboard-response",559,554312,"0.0-3.182-2.182","ugakguc6o78q64x",240,"118.csv","","null","resources/images/coin2.png","null","",NA,NA,NA,NA,""
"image-keyboard-response",560,555393,"0.0-3.183-0.183","ugakguc6o78q64x",240,"118.csv","","1079.1000000238419","resources/trios/L2T4A2.jpg","37","restless",0.5,0.5,0.6,0.331448812907915,"true"
"image-keyboard-response",561,555801,"0.0-3.183-1.183","ugakguc6o78q64x",240,"118.csv","","null","resources/maskTrios/L2BB.jpg","null","",NA,NA,NA,NA,""
"image-keyboard-response",562,557005,"0.0-3.183-2.183","ugakguc6o78q64x",240,"118.csv","","null","resources/images/coin2.png","null","",NA,NA,NA,NA,""
"image-keyboard-response",563,558251,"0.0-3.184-0.184","ugakguc6o78q64x",240,"118.csv","","1243.5999999046326","resources/trios/L2T2A3.jpg","39","restless",0.5,0.5,0.6,0.185765970527371,"true"
"image-keyboard-response",564,558658,"0.0-3.184-1.184","ugakguc6o78q64x",240,"118.csv","","null","resources/maskTrios/BBA3.jpg","null","",NA,NA,NA,NA,""
"image-keyboard-response",565,559866,"0.0-3.184-2.184","ugakguc6o78q64x",240,"118.csv","","null","resources/images/coin2.png","null","",NA,NA,NA,NA,""
"image-keyboard-response",566,560948,"0.0-3.185-0.185","ugakguc6o78q64x",240,"118.csv","","1080","resources/trios/L2T4A3.jpg","37","restless",0.5,0.5,0.6,0.385995810987519,"true"
"image-keyboard-response",567,561355,"0.0-3.185-1.185","ugakguc6o78q64x",240,"118.csv","","null","resources/maskTrios/L2BB.jpg","null","",NA,NA,NA,NA,""
"image-keyboard-response",568,562563,"0.0-3.185-2.185","ugakguc6o78q64x",240,"118.csv","","null","resources/images/coin2.png","null","",NA,NA,NA,NA,""
"image-keyboard-response",569,564744,"0.0-3.186-0.186","ugakguc6o78q64x",240,"118.csv","","2178.7000000476837","resources/trios/L4T4A3.jpg","37","restless",0.5,0.5,0.6,0.194052222489826,"true"
"image-keyboard-response",570,565151,"0.0-3.186-1.186","ugakguc6o78q64x",240,"118.csv","","null","resources/maskTrios/L4BB.jpg","null","",NA,NA,NA,NA,""
"image-keyboard-response",571,566358,"0.0-3.186-2.186","ugakguc6o78q64x",240,"118.csv","","null","resources/images/coin2.png","null","",NA,NA,NA,NA,""
"image-keyboard-response",572,567044,"0.0-3.187-0.187","ugakguc6o78q64x",240,"118.csv","","683.7999999523163","resources/trios/L2T2A3.jpg","39","restless",0.5,0.5,0.6,0.9483076708719,"false"
"image-keyboard-response",573,567452,"0.0-3.187-1.187","ugakguc6o78q64x",240,"118.csv","","null","resources/maskTrios/BBA3.jpg","null","",NA,NA,NA,NA,""
"image-keyboard-response",574,568659,"0.0-3.187-2.187","ugakguc6o78q64x",240,"118.csv","","null","resources/images/fishbone.png","null","",NA,NA,NA,NA,""
"image-keyboard-response",575,569973,"0.0-3.188-0.188","ugakguc6o78q64x",240,"118.csv","","1312.1000000238419","resources/trios/L4T2A3.jpg","37","restless",0.5,0.5,0.6,0.39247329068792,"true"
"image-keyboard-response",576,570381,"0.0-3.188-1.188","ugakguc6o78q64x",240,"118.csv","","null","resources/maskTrios/L4BB.jpg","null","",NA,NA,NA,NA,""
"image-keyboard-response",577,571588,"0.0-3.188-2.188","ugakguc6o78q64x",240,"118.csv","","null","resources/images/coin2.png","null","",NA,NA,NA,NA,""
"image-keyboard-response",578,572396,"0.0-3.189-0.189","ugakguc6o78q64x",240,"118.csv","","805.6000000238419","resources/trios/L2T4A2.jpg","37","restless",0.5,0.4,0.6,0.541610245027365,"false"
"image-keyboard-response",579,572803,"0.0-3.189-1.189","ugakguc6o78q64x",240,"118.csv","","null","resources/maskTrios/L2BB.jpg","null","",NA,NA,NA,NA,""
"image-keyboard-response",580,574008,"0.0-3.189-2.189","ugakguc6o78q64x",240,"118.csv","","null","resources/images/fishbone.png","null","",NA,NA,NA,NA,""
"image-keyboard-response",581,574589,"0.0-3.190-0.190","ugakguc6o78q64x",240,"118.csv","","579.3000000715256","resources/trios/L4T4A3.jpg","39","restless",0.5,0.3,0.6,0.591801913398547,"true"
"image-keyboard-response",582,574997,"0.0-3.190-1.190","ugakguc6o78q64x",240,"118.csv","","null","resources/maskTrios/BBA3.jpg","null","",NA,NA,NA,NA,""
"image-keyboard-response",583,576204,"0.0-3.190-2.190","ugakguc6o78q64x",240,"118.csv","","null","resources/images/coin2.png","null","",NA,NA,NA,NA,""
"image-keyboard-response",584,577198,"0.0-3.191-0.191","ugakguc6o78q64x",240,"118.csv","","991.9000000953674","resources/trios/L2T4A2.jpg","38","restless",0.5,0.4,0.6,0.112934164559914,"true"
"image-keyboard-response",585,577602,"0.0-3.191-1.191","ugakguc6o78q64x",240,"118.csv","","null","resources/maskTrios/BT4B.jpg","null","",NA,NA,NA,NA,""
"image-keyboard-response",586,578805,"0.0-3.191-2.191","ugakguc6o78q64x",240,"118.csv","","null","resources/images/coin2.png","null","",NA,NA,NA,NA,""
"image-keyboard-response",587,580531,"0.0-3.192-0.192","ugakguc6o78q64x",240,"118.csv","","1723","resources/trios/L4T2A3.jpg","37","restless",0.5,0.4,0.6,0.0677991036641901,"true"
"image-keyboard-response",588,580938,"0.0-3.192-1.192","ugakguc6o78q64x",240,"118.csv","","null","resources/maskTrios/L4BB.jpg","null","",NA,NA,NA,NA,""
"image-keyboard-response",589,582145,"0.0-3.192-2.192","ugakguc6o78q64x",240,"118.csv","","null","resources/images/coin2.png","null","",NA,NA,NA,NA,""
"image-keyboard-response",590,584019,"0.0-3.193-0.193","ugakguc6o78q64x",240,"118.csv","","1872","resources/trios/L4T2A2.jpg","37","restless",0.5,0.4,0.6,0.930227738682802,"false"
"image-keyboard-response",591,584426,"0.0-3.193-1.193","ugakguc6o78q64x",240,"118.csv","","null","resources/maskTrios/L4BB.jpg","null","",NA,NA,NA,NA,""
"image-keyboard-response",592,585633,"0.0-3.193-2.193","ugakguc6o78q64x",240,"118.csv","","null","resources/images/fishbone.png","null","",NA,NA,NA,NA,""
"image-keyboard-response",593,588005,"0.0-3.194-0.194","ugakguc6o78q64x",240,"118.csv","","2369.899999976158","resources/trios/L4T4A2.jpg","39","restless",0.5,0.4,0.6,0.964769297178858,"false"
"image-keyboard-response",594,588413,"0.0-3.194-1.194","ugakguc6o78q64x",240,"118.csv","","null","resources/maskTrios/BBA2.jpg","null","",NA,NA,NA,NA,""
"image-keyboard-response",595,589616,"0.0-3.194-2.194","ugakguc6o78q64x",240,"118.csv","","null","resources/images/fishbone.png","null","",NA,NA,NA,NA,""
"image-keyboard-response",596,590534,"0.0-3.195-0.195","ugakguc6o78q64x",240,"118.csv","","915.6999999284744","resources/trios/L2T4A2.jpg","37","restless",0.5,0.4,0.6,0.686676821428535,"false"
"image-keyboard-response",597,590940,"0.0-3.195-1.195","ugakguc6o78q64x",240,"118.csv","","null","resources/maskTrios/L2BB.jpg","null","",NA,NA,NA,NA,""
"image-keyboard-response",598,592147,"0.0-3.195-2.195","ugakguc6o78q64x",240,"118.csv","","null","resources/images/fishbone.png","null","",NA,NA,NA,NA,""
"image-keyboard-response",599,593497,"0.0-3.196-0.196","ugakguc6o78q64x",240,"118.csv","","1348.1999999284744","resources/trios/L4T2A2.jpg","37","restless",0.5,0.4,0.6,0.283713800950724,"true"
"image-keyboard-response",600,593904,"0.0-3.196-1.196","ugakguc6o78q64x",240,"118.csv","","null","resources/maskTrios/L4BB.jpg","null","",NA,NA,NA,NA,""
"image-keyboard-response",601,595111,"0.0-3.196-2.196","ugakguc6o78q64x",240,"118.csv","","null","resources/images/coin2.png","null","",NA,NA,NA,NA,""
"image-keyboard-response",602,596270,"0.0-3.197-0.197","ugakguc6o78q64x",240,"118.csv","","1156.3999999761581","resources/trios/L2T4A2.jpg","37","restless",0.5,0.4,0.6,0.250335810750623,"true"
"image-keyboard-response",603,596677,"0.0-3.197-1.197","ugakguc6o78q64x",240,"118.csv","","null","resources/maskTrios/L2BB.jpg","null","",NA,NA,NA,NA,""
"image-keyboard-response",604,597884,"0.0-3.197-2.197","ugakguc6o78q64x",240,"118.csv","","null","resources/images/coin2.png","null","",NA,NA,NA,NA,""
"image-keyboard-response",605,599416,"0.0-3.198-0.198","ugakguc6o78q64x",240,"118.csv","","1529.8000000715256","resources/trios/L2T4A3.jpg","39","restless",0.5,0.4,0.5,0.223313058621316,"true"
