"trial_type","trial_index","time_elapsed","internal_node_id","subject","participantCode","walkNumber","success","rt","stimulus","key_press","test_part","leftProb","midProb","rightProb","generatedNum","correct"
"pavlovia",0,2001,"0.0-0.0","v74vp9f0nh38r0o",80,"30.csv","","","","","",NA,NA,NA,NA,""
"fullscreen",1,5734,"0.0-1.0","v74vp9f0nh38r0o",80,"30.csv","true","","","","",NA,NA,NA,NA,""
"html-keyboard-response",2,18887,"0.0-2.0-0.0","v74vp9f0nh38r0o",80,"30.csv","","13150.300000071526","<p><font size='6'>Arrrgh!</p></font><p>Can you be the best pirate? Try to find lots of gold! But beware, some islands have more gold than others, and over time, the island with the most gold may change. Can YOU figure it out? </p><font size='6'>GOOD LUCK, CAPTAIN!!!</font><p>Press any key to begin</p>","32","",NA,NA,NA,NA,""
"image-keyboard-response",3,21897,"0.0-2.0-1.0","v74vp9f0nh38r0o",80,"30.csv","","null","resources/image_sets/111.png","null","",NA,NA,NA,NA,""
"image-keyboard-response",4,24756,"0.0-2.0-2.0","v74vp9f0nh38r0o",80,"30.csv","","2856.7000000476837","resources/image_sets/left_highlight.png","37","",NA,NA,NA,NA,""
"image-keyboard-response",5,26527,"0.0-2.0-3.0","v74vp9f0nh38r0o",80,"30.csv","","1767.8999999761581","resources/image_sets/mid_highlight.png","38","",NA,NA,NA,NA,""
"image-keyboard-response",6,29318,"0.0-2.0-4.0","v74vp9f0nh38r0o",80,"30.csv","","2788.2000000476837","resources/image_sets/right_highlight.png","39","",NA,NA,NA,NA,""
"image-keyboard-response",7,30679,"0.0-2.0-5.0","v74vp9f0nh38r0o",80,"30.csv","","1360.1000000238419","resources/image_sets/111.png","13","",NA,NA,NA,NA,""
"image-keyboard-response",8,32266,"0.0-2.0-6.0","v74vp9f0nh38r0o",80,"30.csv","","1585.2000000476837","resources/images/coin2.png","13","",NA,NA,NA,NA,""
"image-keyboard-response",9,34130,"0.0-2.0-7.0","v74vp9f0nh38r0o",80,"30.csv","","1863.7999999523163","resources/images/fishbone.png","13","",NA,NA,NA,NA,""
"html-keyboard-response",10,35860,"0.0-2.0-8.0","v74vp9f0nh38r0o",80,"30.csv","","1729.1000000238419","<p>Your first journey will be a long one, but you will get a well deserved break at the end</p><p>After the break you will have four more journeys, but each will be much shorter than the first, and you will have breaks in between each</p><p>Press Enter to begin</p>","13","",NA,NA,NA,NA,""
"image-keyboard-response",11,36735,"0.0-3.0-0.0","v74vp9f0nh38r0o",80,"30.csv","","873.2999999523163","resources/trios/L2T2A1.jpg","37","restless",0.3,0.7,0.9,0.856950559709433,"false"
"image-keyboard-response",12,37144,"0.0-3.0-1.0","v74vp9f0nh38r0o",80,"30.csv","","null","resources/maskTrios/L2BB.jpg","null","",NA,NA,NA,NA,""
"image-keyboard-response",13,38351,"0.0-3.0-2.0","v74vp9f0nh38r0o",80,"30.csv","","null","resources/images/fishbone.png","null","",NA,NA,NA,NA,""
"image-keyboard-response",14,38733,"0.0-3.1-0.1","v74vp9f0nh38r0o",80,"30.csv","","380.39999997615814","resources/trios/L2T2A2.jpg","39","restless",0.3,0.7,0.8,0.513697600297244,"true"
"image-keyboard-response",15,39146,"0.0-3.1-1.1","v74vp9f0nh38r0o",80,"30.csv","","null","resources/maskTrios/BBA2.jpg","null","",NA,NA,NA,NA,""
"image-keyboard-response",16,40364,"0.0-3.1-2.1","v74vp9f0nh38r0o",80,"30.csv","","null","resources/images/coin2.png","null","",NA,NA,NA,NA,""
"image-keyboard-response",17,42818,"0.0-3.2-0.2","v74vp9f0nh38r0o",80,"30.csv","","2450.8000000715256","resources/trios/L2T4A1.jpg","37","restless",0.3,0.7,0.8,0.581367363574718,"false"
"image-keyboard-response",18,43228,"0.0-3.2-1.2","v74vp9f0nh38r0o",80,"30.csv","","null","resources/maskTrios/L2BB.jpg","null","",NA,NA,NA,NA,""
"image-keyboard-response",19,44432,"0.0-3.2-2.2","v74vp9f0nh38r0o",80,"30.csv","","null","resources/images/fishbone.png","null","",NA,NA,NA,NA,""
"image-keyboard-response",20,44815,"0.0-3.3-0.3","v74vp9f0nh38r0o",80,"30.csv","","380.3000000715256","resources/trios/L1T2A2.jpg","39","restless",0.3,0.7,0.8,0.893358642019951,"false"
"image-keyboard-response",21,45231,"0.0-3.3-1.3","v74vp9f0nh38r0o",80,"30.csv","","null","resources/maskTrios/BBA2.jpg","null","",NA,NA,NA,NA,""
"image-keyboard-response",22,46447,"0.0-3.3-2.3","v74vp9f0nh38r0o",80,"30.csv","","null","resources/images/fishbone.png","null","",NA,NA,NA,NA,""
"image-keyboard-response",23,46831,"0.0-3.4-0.4","v74vp9f0nh38r0o",80,"30.csv","","381.59999990463257","resources/trios/L2T4A1.jpg","39","restless",0.3,0.7,0.8,0.519681050975072,"true"
"image-keyboard-response",24,47246,"0.0-3.4-1.4","v74vp9f0nh38r0o",80,"30.csv","","null","resources/maskTrios/BBA1.jpg","null","",NA,NA,NA,NA,""
"image-keyboard-response",25,48458,"0.0-3.4-2.4","v74vp9f0nh38r0o",80,"30.csv","","null","resources/images/coin2.png","null","",NA,NA,NA,NA,""
"image-keyboard-response",26,48613,"0.0-3.5-0.5","v74vp9f0nh38r0o",80,"30.csv","","153.5","resources/trios/L1T4A2.jpg","39","restless",0.3,0.7,0.8,0.794142849772604,"true"
"image-keyboard-response",27,49026,"0.0-3.5-1.5","v74vp9f0nh38r0o",80,"30.csv","","null","resources/maskTrios/BBA2.jpg","null","",NA,NA,NA,NA,""
"image-keyboard-response",28,50235,"0.0-3.5-2.5","v74vp9f0nh38r0o",80,"30.csv","","null","resources/images/coin2.png","null","",NA,NA,NA,NA,""
"image-keyboard-response",29,50380,"0.0-3.6-0.6","v74vp9f0nh38r0o",80,"30.csv","","142.39999997615814","resources/trios/L1T4A2.jpg","39","restless",0.3,0.7,0.8,0.272040815922375,"true"
"image-keyboard-response",30,50785,"0.0-3.6-1.6","v74vp9f0nh38r0o",80,"30.csv","","null","resources/maskTrios/BBA2.jpg","null","",NA,NA,NA,NA,""
"image-keyboard-response",31,52002,"0.0-3.6-2.6","v74vp9f0nh38r0o",80,"30.csv","","null","resources/images/coin2.png","null","",NA,NA,NA,NA,""
"image-keyboard-response",32,52006,"0.0-3.7-0.7","v74vp9f0nh38r0o",80,"30.csv","","0.7999999523162842","resources/trios/L2T4A1.jpg","39","restless",0.3,0.6,0.8,0.591483132602122,"true"
"image-keyboard-response",33,52421,"0.0-3.7-1.7","v74vp9f0nh38r0o",80,"30.csv","","null","resources/maskTrios/BBA1.jpg","null","",NA,NA,NA,NA,""
"image-keyboard-response",34,53630,"0.0-3.7-2.7","v74vp9f0nh38r0o",80,"30.csv","","null","resources/images/coin2.png","null","",NA,NA,NA,NA,""
"image-keyboard-response",35,53750,"0.0-3.8-0.8","v74vp9f0nh38r0o",80,"30.csv","","118.09999990463257","resources/trios/L2T4A1.jpg","39","restless",0.3,0.6,0.8,0.591103072319982,"true"
"image-keyboard-response",36,54157,"0.0-3.8-1.8","v74vp9f0nh38r0o",80,"30.csv","","null","resources/maskTrios/BBA1.jpg","null","",NA,NA,NA,NA,""
"image-keyboard-response",37,55363,"0.0-3.8-2.8","v74vp9f0nh38r0o",80,"30.csv","","null","resources/images/coin2.png","null","",NA,NA,NA,NA,""
"image-keyboard-response",38,55693,"0.0-3.9-0.9","v74vp9f0nh38r0o",80,"30.csv","","326.3000000715256","resources/trios/L1T2A2.jpg","39","restless",0.4,0.6,0.7,0.200165591575374,"true"
"image-keyboard-response",39,56098,"0.0-3.9-1.9","v74vp9f0nh38r0o",80,"30.csv","","null","resources/maskTrios/BBA2.jpg","null","",NA,NA,NA,NA,""
"image-keyboard-response",40,57318,"0.0-3.9-2.9","v74vp9f0nh38r0o",80,"30.csv","","null","resources/images/coin2.png","null","",NA,NA,NA,NA,""
"image-keyboard-response",41,57620,"0.0-3.10-0.10","v74vp9f0nh38r0o",80,"30.csv","","299.90000009536743","resources/trios/L1T4A1.jpg","39","restless",0.4,0.6,0.7,0.172055769380895,"true"
"image-keyboard-response",42,58032,"0.0-3.10-1.10","v74vp9f0nh38r0o",80,"30.csv","","null","resources/maskTrios/BBA1.jpg","null","",NA,NA,NA,NA,""
"image-keyboard-response",43,59250,"0.0-3.10-2.10","v74vp9f0nh38r0o",80,"30.csv","","null","resources/images/coin2.png","null","",NA,NA,NA,NA,""
"image-keyboard-response",44,59460,"0.0-3.11-0.11","v74vp9f0nh38r0o",80,"30.csv","","206.89999997615814","resources/trios/L2T4A2.jpg","39","restless",0.4,0.6,0.7,0.254262769025483,"true"
"image-keyboard-response",45,59863,"0.0-3.11-1.11","v74vp9f0nh38r0o",80,"30.csv","","null","resources/maskTrios/BBA2.jpg","null","",NA,NA,NA,NA,""
"image-keyboard-response",46,61067,"0.0-3.11-2.11","v74vp9f0nh38r0o",80,"30.csv","","null","resources/images/coin2.png","null","",NA,NA,NA,NA,""
"image-keyboard-response",47,70272,"0.0-3.12-0.12","v74vp9f0nh38r0o",80,"30.csv","","9202.5","resources/trios/L1T4A2.jpg","39","restless",0.4,0.6,0.7,0.615421599709749,"true"
"image-keyboard-response",48,70676,"0.0-3.12-1.12","v74vp9f0nh38r0o",80,"30.csv","","null","resources/maskTrios/BBA2.jpg","null","",NA,NA,NA,NA,""
"image-keyboard-response",49,71882,"0.0-3.12-2.12","v74vp9f0nh38r0o",80,"30.csv","","null","resources/images/coin2.png","null","",NA,NA,NA,NA,""
"image-keyboard-response",50,72622,"0.0-3.13-0.13","v74vp9f0nh38r0o",80,"30.csv","","737.7999999523163","resources/trios/L1T4A2.jpg","39","restless",0.4,0.6,0.7,0.113978846013033,"true"
"image-keyboard-response",51,73032,"0.0-3.13-1.13","v74vp9f0nh38r0o",80,"30.csv","","null","resources/maskTrios/BBA2.jpg","null","",NA,NA,NA,NA,""
"image-keyboard-response",52,74235,"0.0-3.13-2.13","v74vp9f0nh38r0o",80,"30.csv","","null","resources/images/coin2.png","null","",NA,NA,NA,NA,""
"image-keyboard-response",53,74959,"0.0-3.14-0.14","v74vp9f0nh38r0o",80,"30.csv","","721.7999999523163","resources/trios/L1T2A1.jpg","39","restless",0.4,0.6,0.7,0.889046650132959,"false"
"image-keyboard-response",54,75365,"0.0-3.14-1.14","v74vp9f0nh38r0o",80,"30.csv","","null","resources/maskTrios/BBA1.jpg","null","",NA,NA,NA,NA,""
"image-keyboard-response",55,76572,"0.0-3.14-2.14","v74vp9f0nh38r0o",80,"30.csv","","null","resources/images/fishbone.png","null","",NA,NA,NA,NA,""
"image-keyboard-response",56,76884,"0.0-3.15-0.15","v74vp9f0nh38r0o",80,"30.csv","","308.89999997615814","resources/trios/L2T2A2.jpg","39","restless",0.4,0.6,0.7,0.821875052482729,"false"
"image-keyboard-response",57,77294,"0.0-3.15-1.15","v74vp9f0nh38r0o",80,"30.csv","","null","resources/maskTrios/BBA2.jpg","null","",NA,NA,NA,NA,""
"image-keyboard-response",58,78506,"0.0-3.15-2.15","v74vp9f0nh38r0o",80,"30.csv","","null","resources/images/fishbone.png","null","",NA,NA,NA,NA,""
"image-keyboard-response",59,78912,"0.0-3.16-0.16","v74vp9f0nh38r0o",80,"30.csv","","404","resources/trios/L1T4A1.jpg","37","restless",0.4,0.6,0.7,0.0437177034446088,"true"
"image-keyboard-response",60,79315,"0.0-3.16-1.16","v74vp9f0nh38r0o",80,"30.csv","","null","resources/maskTrios/L1BB.jpg","null","",NA,NA,NA,NA,""
"image-keyboard-response",61,80525,"0.0-3.16-2.16","v74vp9f0nh38r0o",80,"30.csv","","null","resources/images/coin2.png","null","",NA,NA,NA,NA,""
"image-keyboard-response",62,80762,"0.0-3.17-0.17","v74vp9f0nh38r0o",80,"30.csv","","234.10000002384186","resources/trios/L1T2A2.jpg","37","restless",0.4,0.6,0.7,0.72880431429836,"false"
"image-keyboard-response",63,81163,"0.0-3.17-1.17","v74vp9f0nh38r0o",80,"30.csv","","null","resources/maskTrios/L1BB.jpg","null","",NA,NA,NA,NA,""
"image-keyboard-response",64,82374,"0.0-3.17-2.17","v74vp9f0nh38r0o",80,"30.csv","","null","resources/images/fishbone.png","null","",NA,NA,NA,NA,""
"image-keyboard-response",65,82496,"0.0-3.18-0.18","v74vp9f0nh38r0o",80,"30.csv","","120.59999990463257","resources/trios/L1T4A2.jpg","39","restless",0.4,0.6,0.7,0.135025715167798,"true"
"image-keyboard-response",66,82907,"0.0-3.18-1.18","v74vp9f0nh38r0o",80,"30.csv","","null","resources/maskTrios/BBA2.jpg","null","",NA,NA,NA,NA,""
"image-keyboard-response",67,84113,"0.0-3.18-2.18","v74vp9f0nh38r0o",80,"30.csv","","null","resources/images/coin2.png","null","",NA,NA,NA,NA,""
"image-keyboard-response",68,84399,"0.0-3.19-0.19","v74vp9f0nh38r0o",80,"30.csv","","283.5","resources/trios/L1T4A1.jpg","39","restless",0.4,0.6,0.8,0.213272267847685,"true"
"image-keyboard-response",69,84808,"0.0-3.19-1.19","v74vp9f0nh38r0o",80,"30.csv","","null","resources/maskTrios/BBA1.jpg","null","",NA,NA,NA,NA,""
"image-keyboard-response",70,86014,"0.0-3.19-2.19","v74vp9f0nh38r0o",80,"30.csv","","null","resources/images/coin2.png","null","",NA,NA,NA,NA,""
"image-keyboard-response",71,86321,"0.0-3.20-0.20","v74vp9f0nh38r0o",80,"30.csv","","304.6999999284744","resources/trios/L2T4A2.jpg","39","restless",0.4,0.6,0.8,0.383926971440006,"true"
"image-keyboard-response",72,86733,"0.0-3.20-1.20","v74vp9f0nh38r0o",80,"30.csv","","null","resources/maskTrios/BBA2.jpg","null","",NA,NA,NA,NA,""
"image-keyboard-response",73,87938,"0.0-3.20-2.20","v74vp9f0nh38r0o",80,"30.csv","","null","resources/images/coin2.png","null","",NA,NA,NA,NA,""
"image-keyboard-response",74,88131,"0.0-3.21-0.21","v74vp9f0nh38r0o",80,"30.csv","","190.5","resources/trios/L1T2A2.jpg","39","restless",0.4,0.6,0.8,0.883891058855518,"false"
"image-keyboard-response",75,88541,"0.0-3.21-1.21","v74vp9f0nh38r0o",80,"30.csv","","null","resources/maskTrios/BBA2.jpg","null","",NA,NA,NA,NA,""
"image-keyboard-response",76,89759,"0.0-3.21-2.21","v74vp9f0nh38r0o",80,"30.csv","","null","resources/images/fishbone.png","null","",NA,NA,NA,NA,""
"image-keyboard-response",77,90038,"0.0-3.22-0.22","v74vp9f0nh38r0o",80,"30.csv","","276.5","resources/trios/L1T4A1.jpg","39","restless",0.4,0.6,0.8,0.83703902891513,"false"
"image-keyboard-response",78,90448,"0.0-3.22-1.22","v74vp9f0nh38r0o",80,"30.csv","","null","resources/maskTrios/BBA1.jpg","null","",NA,NA,NA,NA,""
"image-keyboard-response",79,91653,"0.0-3.22-2.22","v74vp9f0nh38r0o",80,"30.csv","","null","resources/images/fishbone.png","null","",NA,NA,NA,NA,""
"image-keyboard-response",80,91885,"0.0-3.23-0.23","v74vp9f0nh38r0o",80,"30.csv","","229.10000002384186","resources/trios/L1T2A2.jpg","39","restless",0.4,0.6,0.8,0.925498504911012,"false"
"image-keyboard-response",81,92294,"0.0-3.23-1.23","v74vp9f0nh38r0o",80,"30.csv","","null","resources/maskTrios/BBA2.jpg","null","",NA,NA,NA,NA,""
"image-keyboard-response",82,93508,"0.0-3.23-2.23","v74vp9f0nh38r0o",80,"30.csv","","null","resources/images/fishbone.png","null","",NA,NA,NA,NA,""
"image-keyboard-response",83,93819,"0.0-3.24-0.24","v74vp9f0nh38r0o",80,"30.csv","","308.5","resources/trios/L1T2A2.jpg","39","restless",0.4,0.6,0.8,0.0516763853978874,"true"
"image-keyboard-response",84,94229,"0.0-3.24-1.24","v74vp9f0nh38r0o",80,"30.csv","","null","resources/maskTrios/BBA2.jpg","null","",NA,NA,NA,NA,""
"image-keyboard-response",85,95435,"0.0-3.24-2.24","v74vp9f0nh38r0o",80,"30.csv","","null","resources/images/coin2.png","null","",NA,NA,NA,NA,""
"image-keyboard-response",86,95438,"0.0-3.25-0.25","v74vp9f0nh38r0o",80,"30.csv","","0.09999990463256836","resources/trios/L1T4A1.jpg","39","restless",0.4,0.6,0.8,0.347069289156938,"true"
"image-keyboard-response",87,95846,"0.0-3.25-1.25","v74vp9f0nh38r0o",80,"30.csv","","null","resources/maskTrios/BBA1.jpg","null","",NA,NA,NA,NA,""
"image-keyboard-response",88,97052,"0.0-3.25-2.25","v74vp9f0nh38r0o",80,"30.csv","","null","resources/images/coin2.png","null","",NA,NA,NA,NA,""
"image-keyboard-response",89,97274,"0.0-3.26-0.26","v74vp9f0nh38r0o",80,"30.csv","","220.19999992847443","resources/trios/L1T4A2.jpg","39","restless",0.4,0.6,0.8,0.823910451903807,"false"
"image-keyboard-response",90,97679,"0.0-3.26-1.26","v74vp9f0nh38r0o",80,"30.csv","","null","resources/maskTrios/BBA2.jpg","null","",NA,NA,NA,NA,""
"image-keyboard-response",91,98885,"0.0-3.26-2.26","v74vp9f0nh38r0o",80,"30.csv","","null","resources/images/fishbone.png","null","",NA,NA,NA,NA,""
"image-keyboard-response",92,99170,"0.0-3.27-0.27","v74vp9f0nh38r0o",80,"30.csv","","282.10000002384186","resources/trios/L1T2A1.jpg","39","restless",0.4,0.6,0.8,0.416737149911355,"true"
"image-keyboard-response",93,99578,"0.0-3.27-1.27","v74vp9f0nh38r0o",80,"30.csv","","null","resources/maskTrios/BBA1.jpg","null","",NA,NA,NA,NA,""
"image-keyboard-response",94,100782,"0.0-3.27-2.27","v74vp9f0nh38r0o",80,"30.csv","","null","resources/images/coin2.png","null","",NA,NA,NA,NA,""
"image-keyboard-response",95,102430,"0.0-3.28-0.28","v74vp9f0nh38r0o",80,"30.csv","","1645.3999999761581","resources/trios/L2T4A2.jpg","37","restless",0.4,0.6,0.8,0.00547893883779849,"true"
"image-keyboard-response",96,102848,"0.0-3.28-1.28","v74vp9f0nh38r0o",80,"30.csv","","null","resources/maskTrios/L2BB.jpg","null","",NA,NA,NA,NA,""
"image-keyboard-response",97,104056,"0.0-3.28-2.28","v74vp9f0nh38r0o",80,"30.csv","","null","resources/images/coin2.png","null","",NA,NA,NA,NA,""
"image-keyboard-response",98,104464,"0.0-3.29-0.29","v74vp9f0nh38r0o",80,"30.csv","","406","resources/trios/L1T2A2.jpg","39","restless",0.4,0.6,0.8,0.51451999114367,"true"
"image-keyboard-response",99,104874,"0.0-3.29-1.29","v74vp9f0nh38r0o",80,"30.csv","","null","resources/maskTrios/BBA2.jpg","null","",NA,NA,NA,NA,""
"image-keyboard-response",100,106079,"0.0-3.29-2.29","v74vp9f0nh38r0o",80,"30.csv","","null","resources/images/coin2.png","null","",NA,NA,NA,NA,""
"image-keyboard-response",101,107320,"0.0-3.30-0.30","v74vp9f0nh38r0o",80,"30.csv","","1238.2999999523163","resources/trios/L1T2A1.jpg","39","restless",0.4,0.6,0.8,0.55820181146858,"true"
"image-keyboard-response",102,107725,"0.0-3.30-1.30","v74vp9f0nh38r0o",80,"30.csv","","null","resources/maskTrios/BBA1.jpg","null","",NA,NA,NA,NA,""
"image-keyboard-response",103,108932,"0.0-3.30-2.30","v74vp9f0nh38r0o",80,"30.csv","","null","resources/images/coin2.png","null","",NA,NA,NA,NA,""
"image-keyboard-response",104,109235,"0.0-3.31-0.31","v74vp9f0nh38r0o",80,"30.csv","","299.6999999284744","resources/trios/L1T4A2.jpg","39","restless",0.4,0.5,0.8,0.967316881551092,"false"
"image-keyboard-response",105,109642,"0.0-3.31-1.31","v74vp9f0nh38r0o",80,"30.csv","","null","resources/maskTrios/BBA2.jpg","null","",NA,NA,NA,NA,""
"image-keyboard-response",106,110859,"0.0-3.31-2.31","v74vp9f0nh38r0o",80,"30.csv","","null","resources/images/fishbone.png","null","",NA,NA,NA,NA,""
"image-keyboard-response",107,112102,"0.0-3.32-0.32","v74vp9f0nh38r0o",80,"30.csv","","1239.7000000476837","resources/trios/L1T4A1.jpg","39","restless",0.4,0.5,0.8,0.804649510289119,"false"
"image-keyboard-response",108,112506,"0.0-3.32-1.32","v74vp9f0nh38r0o",80,"30.csv","","null","resources/maskTrios/BBA1.jpg","null","",NA,NA,NA,NA,""
"image-keyboard-response",109,113713,"0.0-3.32-2.32","v74vp9f0nh38r0o",80,"30.csv","","null","resources/images/fishbone.png","null","",NA,NA,NA,NA,""
"image-keyboard-response",110,113848,"0.0-3.33-0.33","v74vp9f0nh38r0o",80,"30.csv","","132.30000007152557","resources/trios/L2T2A2.jpg","39","restless",0.4,0.5,0.8,0.307214142056756,"true"
"image-keyboard-response",111,114263,"0.0-3.33-1.33","v74vp9f0nh38r0o",80,"30.csv","","null","resources/maskTrios/BBA2.jpg","null","",NA,NA,NA,NA,""
"image-keyboard-response",112,115469,"0.0-3.33-2.33","v74vp9f0nh38r0o",80,"30.csv","","null","resources/images/coin2.png","null","",NA,NA,NA,NA,""
"image-keyboard-response",113,115850,"0.0-3.34-0.34","v74vp9f0nh38r0o",80,"30.csv","","377.7000000476837","resources/trios/L2T4A1.jpg","39","restless",0.4,0.5,0.7,0.998530664072899,"false"
"image-keyboard-response",114,116257,"0.0-3.34-1.34","v74vp9f0nh38r0o",80,"30.csv","","null","resources/maskTrios/BBA1.jpg","null","",NA,NA,NA,NA,""
"image-keyboard-response",115,117463,"0.0-3.34-2.34","v74vp9f0nh38r0o",80,"30.csv","","null","resources/images/fishbone.png","null","",NA,NA,NA,NA,""
"image-keyboard-response",116,117931,"0.0-3.35-0.35","v74vp9f0nh38r0o",80,"30.csv","","465.5","resources/trios/L1T2A2.jpg","39","restless",0.4,0.5,0.7,0.880668052262812,"false"
"image-keyboard-response",117,118340,"0.0-3.35-1.35","v74vp9f0nh38r0o",80,"30.csv","","null","resources/maskTrios/BBA2.jpg","null","",NA,NA,NA,NA,""
"image-keyboard-response",118,119543,"0.0-3.35-2.35","v74vp9f0nh38r0o",80,"30.csv","","null","resources/images/fishbone.png","null","",NA,NA,NA,NA,""
"image-keyboard-response",119,119867,"0.0-3.36-0.36","v74vp9f0nh38r0o",80,"30.csv","","321.90000009536743","resources/trios/L2T2A2.jpg","39","restless",0.4,0.5,0.7,0.753697714894505,"false"
"image-keyboard-response",120,120278,"0.0-3.36-1.36","v74vp9f0nh38r0o",80,"30.csv","","null","resources/maskTrios/BBA2.jpg","null","",NA,NA,NA,NA,""
"image-keyboard-response",121,121491,"0.0-3.36-2.36","v74vp9f0nh38r0o",80,"30.csv","","null","resources/images/fishbone.png","null","",NA,NA,NA,NA,""
"image-keyboard-response",122,121788,"0.0-3.37-0.37","v74vp9f0nh38r0o",80,"30.csv","","294.60000002384186","resources/trios/L1T2A2.jpg","39","restless",0.4,0.5,0.7,0.527127666575069,"true"
"image-keyboard-response",123,122191,"0.0-3.37-1.37","v74vp9f0nh38r0o",80,"30.csv","","null","resources/maskTrios/BBA2.jpg","null","",NA,NA,NA,NA,""
"image-keyboard-response",124,123400,"0.0-3.37-2.37","v74vp9f0nh38r0o",80,"30.csv","","null","resources/images/coin2.png","null","",NA,NA,NA,NA,""
"image-keyboard-response",125,123716,"0.0-3.38-0.38","v74vp9f0nh38r0o",80,"30.csv","","313.3000000715256","resources/trios/L2T4A2.jpg","39","restless",0.5,0.5,0.7,0.46331729239334,"true"
"image-keyboard-response",126,124124,"0.0-3.38-1.38","v74vp9f0nh38r0o",80,"30.csv","","null","resources/maskTrios/BBA2.jpg","null","",NA,NA,NA,NA,""
"image-keyboard-response",127,125330,"0.0-3.38-2.38","v74vp9f0nh38r0o",80,"30.csv","","null","resources/images/coin2.png","null","",NA,NA,NA,NA,""
"image-keyboard-response",128,125541,"0.0-3.39-0.39","v74vp9f0nh38r0o",80,"30.csv","","208.5","resources/trios/L1T4A1.jpg","39","restless",0.5,0.5,0.7,0.140231388322497,"true"
"image-keyboard-response",129,125954,"0.0-3.39-1.39","v74vp9f0nh38r0o",80,"30.csv","","null","resources/maskTrios/BBA1.jpg","null","",NA,NA,NA,NA,""
"image-keyboard-response",130,127165,"0.0-3.39-2.39","v74vp9f0nh38r0o",80,"30.csv","","null","resources/images/coin2.png","null","",NA,NA,NA,NA,""
"image-keyboard-response",131,127687,"0.0-3.40-0.40","v74vp9f0nh38r0o",80,"30.csv","","519.5","resources/trios/L2T2A2.jpg","39","restless",0.5,0.5,0.7,0.190220180085217,"true"
"image-keyboard-response",132,128092,"0.0-3.40-1.40","v74vp9f0nh38r0o",80,"30.csv","","null","resources/maskTrios/BBA2.jpg","null","",NA,NA,NA,NA,""
"image-keyboard-response",133,129309,"0.0-3.40-2.40","v74vp9f0nh38r0o",80,"30.csv","","null","resources/images/coin2.png","null","",NA,NA,NA,NA,""
"image-keyboard-response",134,129509,"0.0-3.41-0.41","v74vp9f0nh38r0o",80,"30.csv","","198.20000004768372","resources/trios/L1T2A2.jpg","39","restless",0.5,0.5,0.7,0.778789391701494,"false"
"image-keyboard-response",135,129920,"0.0-3.41-1.41","v74vp9f0nh38r0o",80,"30.csv","","null","resources/maskTrios/BBA2.jpg","null","",NA,NA,NA,NA,""
"image-keyboard-response",136,131130,"0.0-3.41-2.41","v74vp9f0nh38r0o",80,"30.csv","","null","resources/images/fishbone.png","null","",NA,NA,NA,NA,""
"image-keyboard-response",137,131559,"0.0-3.42-0.42","v74vp9f0nh38r0o",80,"30.csv","","427","resources/trios/L2T4A2.jpg","39","restless",0.5,0.5,0.7,0.565374676988045,"true"
"image-keyboard-response",138,131977,"0.0-3.42-1.42","v74vp9f0nh38r0o",80,"30.csv","","null","resources/maskTrios/BBA2.jpg","null","",NA,NA,NA,NA,""
"image-keyboard-response",139,133180,"0.0-3.42-2.42","v74vp9f0nh38r0o",80,"30.csv","","null","resources/images/coin2.png","null","",NA,NA,NA,NA,""
"image-keyboard-response",140,133231,"0.0-3.43-0.43","v74vp9f0nh38r0o",80,"30.csv","","50.300000071525574","resources/trios/L2T4A1.jpg","39","restless",0.5,0.5,0.7,0.403331768971829,"true"
"image-keyboard-response",141,133645,"0.0-3.43-1.43","v74vp9f0nh38r0o",80,"30.csv","","null","resources/maskTrios/BBA1.jpg","null","",NA,NA,NA,NA,""
"image-keyboard-response",142,134852,"0.0-3.43-2.43","v74vp9f0nh38r0o",80,"30.csv","","null","resources/images/coin2.png","null","",NA,NA,NA,NA,""
"image-keyboard-response",143,134959,"0.0-3.44-0.44","v74vp9f0nh38r0o",80,"30.csv","","104.29999995231628","resources/trios/L2T2A2.jpg","39","restless",0.5,0.5,0.7,0.466611456371985,"true"
"image-keyboard-response",144,135362,"0.0-3.44-1.44","v74vp9f0nh38r0o",80,"30.csv","","null","resources/maskTrios/BBA2.jpg","null","",NA,NA,NA,NA,""
"image-keyboard-response",145,136567,"0.0-3.44-2.44","v74vp9f0nh38r0o",80,"30.csv","","null","resources/images/coin2.png","null","",NA,NA,NA,NA,""
"image-keyboard-response",146,136712,"0.0-3.45-0.45","v74vp9f0nh38r0o",80,"30.csv","","142","resources/trios/L1T2A2.jpg","39","restless",0.5,0.6,0.7,0.188489599793718,"true"
"image-keyboard-response",147,137122,"0.0-3.45-1.45","v74vp9f0nh38r0o",80,"30.csv","","null","resources/maskTrios/BBA2.jpg","null","",NA,NA,NA,NA,""
"image-keyboard-response",148,138330,"0.0-3.45-2.45","v74vp9f0nh38r0o",80,"30.csv","","null","resources/images/coin2.png","null","",NA,NA,NA,NA,""
"image-keyboard-response",149,139009,"0.0-3.46-0.46","v74vp9f0nh38r0o",80,"30.csv","","676.6000000238419","resources/trios/L2T4A2.jpg","39","restless",0.5,0.6,0.7,0.936101324438875,"false"
"image-keyboard-response",150,139415,"0.0-3.46-1.46","v74vp9f0nh38r0o",80,"30.csv","","null","resources/maskTrios/BBA2.jpg","null","",NA,NA,NA,NA,""
"image-keyboard-response",151,140627,"0.0-3.46-2.46","v74vp9f0nh38r0o",80,"30.csv","","null","resources/images/fishbone.png","null","",NA,NA,NA,NA,""
"image-keyboard-response",152,141596,"0.0-3.47-0.47","v74vp9f0nh38r0o",80,"30.csv","","966.4000000953674","resources/trios/L2T2A2.jpg","39","restless",0.5,0.5,0.7,0.790123550104928,"false"
"image-keyboard-response",153,142007,"0.0-3.47-1.47","v74vp9f0nh38r0o",80,"30.csv","","null","resources/maskTrios/BBA2.jpg","null","",NA,NA,NA,NA,""
"image-keyboard-response",154,143224,"0.0-3.47-2.47","v74vp9f0nh38r0o",80,"30.csv","","null","resources/images/fishbone.png","null","",NA,NA,NA,NA,""
"image-keyboard-response",155,144405,"0.0-3.48-0.48","v74vp9f0nh38r0o",80,"30.csv","","1178.2000000476837","resources/trios/L2T2A2.jpg","39","restless",0.5,0.5,0.7,0.915719833979113,"false"
"image-keyboard-response",156,144809,"0.0-3.48-1.48","v74vp9f0nh38r0o",80,"30.csv","","null","resources/maskTrios/BBA2.jpg","null","",NA,NA,NA,NA,""
"image-keyboard-response",157,146017,"0.0-3.48-2.48","v74vp9f0nh38r0o",80,"30.csv","","null","resources/images/fishbone.png","null","",NA,NA,NA,NA,""
"image-keyboard-response",158,146694,"0.0-3.49-0.49","v74vp9f0nh38r0o",80,"30.csv","","674.7999999523163","resources/trios/L1T2A1.jpg","39","restless",0.4,0.5,0.7,0.595604098749562,"true"
"image-keyboard-response",159,147098,"0.0-3.49-1.49","v74vp9f0nh38r0o",80,"30.csv","","null","resources/maskTrios/BBA1.jpg","null","",NA,NA,NA,NA,""
"image-keyboard-response",160,148302,"0.0-3.49-2.49","v74vp9f0nh38r0o",80,"30.csv","","null","resources/images/coin2.png","null","",NA,NA,NA,NA,""
"image-keyboard-response",161,148809,"0.0-3.50-0.50","v74vp9f0nh38r0o",80,"30.csv","","504.7999999523163","resources/trios/L2T4A1.jpg","39","restless",0.4,0.6,0.7,0.184623633205202,"true"
"image-keyboard-response",162,149212,"0.0-3.50-1.50","v74vp9f0nh38r0o",80,"30.csv","","null","resources/maskTrios/BBA1.jpg","null","",NA,NA,NA,NA,""
"image-keyboard-response",163,150421,"0.0-3.50-2.50","v74vp9f0nh38r0o",80,"30.csv","","null","resources/images/coin2.png","null","",NA,NA,NA,NA,""
"image-keyboard-response",164,150461,"0.0-3.51-0.51","v74vp9f0nh38r0o",80,"30.csv","","37.39999997615814","resources/trios/L2T2A1.jpg","39","restless",0.4,0.6,0.7,0.587865710591238,"true"
"image-keyboard-response",165,150864,"0.0-3.51-1.51","v74vp9f0nh38r0o",80,"30.csv","","null","resources/maskTrios/BBA1.jpg","null","",NA,NA,NA,NA,""
"image-keyboard-response",166,152087,"0.0-3.51-2.51","v74vp9f0nh38r0o",80,"30.csv","","null","resources/images/coin2.png","null","",NA,NA,NA,NA,""
"image-keyboard-response",167,152150,"0.0-3.52-0.52","v74vp9f0nh38r0o",80,"30.csv","","60.60000002384186","resources/trios/L2T4A2.jpg","39","restless",0.4,0.6,0.7,0.162419459983079,"true"
"image-keyboard-response",168,152561,"0.0-3.52-1.52","v74vp9f0nh38r0o",80,"30.csv","","null","resources/maskTrios/BBA2.jpg","null","",NA,NA,NA,NA,""
"image-keyboard-response",169,153772,"0.0-3.52-2.52","v74vp9f0nh38r0o",80,"30.csv","","null","resources/images/coin2.png","null","",NA,NA,NA,NA,""
"image-keyboard-response",170,153848,"0.0-3.53-0.53","v74vp9f0nh38r0o",80,"30.csv","","74.29999995231628","resources/trios/L2T4A1.jpg","39","restless",0.4,0.6,0.7,0.987729936069083,"false"
"image-keyboard-response",171,154258,"0.0-3.53-1.53","v74vp9f0nh38r0o",80,"30.csv","","null","resources/maskTrios/BBA1.jpg","null","",NA,NA,NA,NA,""
"image-keyboard-response",172,155460,"0.0-3.53-2.53","v74vp9f0nh38r0o",80,"30.csv","","null","resources/images/fishbone.png","null","",NA,NA,NA,NA,""
"image-keyboard-response",173,155666,"0.0-3.54-0.54","v74vp9f0nh38r0o",80,"30.csv","","203.29999995231628","resources/trios/L1T2A1.jpg","39","restless",0.4,0.6,0.8,0.508389503772567,"true"
"image-keyboard-response",174,156072,"0.0-3.54-1.54","v74vp9f0nh38r0o",80,"30.csv","","null","resources/maskTrios/BBA1.jpg","null","",NA,NA,NA,NA,""
"image-keyboard-response",175,157280,"0.0-3.54-2.54","v74vp9f0nh38r0o",80,"30.csv","","null","resources/images/coin2.png","null","",NA,NA,NA,NA,""
"image-keyboard-response",176,157366,"0.0-3.55-0.55","v74vp9f0nh38r0o",80,"30.csv","","84.10000002384186","resources/trios/L2T2A2.jpg","39","restless",0.4,0.6,0.8,0.95018338712205,"false"
"image-keyboard-response",177,157777,"0.0-3.55-1.55","v74vp9f0nh38r0o",80,"30.csv","","null","resources/maskTrios/BBA2.jpg","null","",NA,NA,NA,NA,""
"image-keyboard-response",178,158981,"0.0-3.55-2.55","v74vp9f0nh38r0o",80,"30.csv","","null","resources/images/fishbone.png","null","",NA,NA,NA,NA,""
"image-keyboard-response",179,159238,"0.0-3.56-0.56","v74vp9f0nh38r0o",80,"30.csv","","254.29999995231628","resources/trios/L2T4A1.jpg","39","restless",0.4,0.6,0.7,0.792354566249863,"false"
"image-keyboard-response",180,159654,"0.0-3.56-1.56","v74vp9f0nh38r0o",80,"30.csv","","null","resources/maskTrios/BBA1.jpg","null","",NA,NA,NA,NA,""
"image-keyboard-response",181,160864,"0.0-3.56-2.56","v74vp9f0nh38r0o",80,"30.csv","","null","resources/images/fishbone.png","null","",NA,NA,NA,NA,""
"image-keyboard-response",182,161105,"0.0-3.57-0.57","v74vp9f0nh38r0o",80,"30.csv","","238.29999995231628","resources/trios/L2T4A2.jpg","39","restless",0.4,0.6,0.7,0.357305927053152,"true"
"image-keyboard-response",183,161523,"0.0-3.57-1.57","v74vp9f0nh38r0o",80,"30.csv","","null","resources/maskTrios/BBA2.jpg","null","",NA,NA,NA,NA,""
"image-keyboard-response",184,162730,"0.0-3.57-2.57","v74vp9f0nh38r0o",80,"30.csv","","null","resources/images/coin2.png","null","",NA,NA,NA,NA,""
"image-keyboard-response",185,162924,"0.0-3.58-0.58","v74vp9f0nh38r0o",80,"30.csv","","191.60000002384186","resources/trios/L2T4A2.jpg","39","restless",0.4,0.6,0.7,0.94964163422889,"false"
"image-keyboard-response",186,163342,"0.0-3.58-1.58","v74vp9f0nh38r0o",80,"30.csv","","null","resources/maskTrios/BBA2.jpg","null","",NA,NA,NA,NA,""
"image-keyboard-response",187,164552,"0.0-3.58-2.58","v74vp9f0nh38r0o",80,"30.csv","","null","resources/images/fishbone.png","null","",NA,NA,NA,NA,""
"image-keyboard-response",188,164803,"0.0-3.59-0.59","v74vp9f0nh38r0o",80,"30.csv","","248.30000007152557","resources/trios/L2T2A2.jpg","39","restless",0.4,0.6,0.7,0.509656070404446,"true"
"image-keyboard-response",189,165208,"0.0-3.59-1.59","v74vp9f0nh38r0o",80,"30.csv","","null","resources/maskTrios/BBA2.jpg","null","",NA,NA,NA,NA,""
"image-keyboard-response",190,166419,"0.0-3.59-2.59","v74vp9f0nh38r0o",80,"30.csv","","null","resources/images/coin2.png","null","",NA,NA,NA,NA,""
"image-keyboard-response",191,166672,"0.0-3.60-0.60","v74vp9f0nh38r0o",80,"30.csv","","250.69999992847443","resources/trios/L2T2A2.jpg","37","restless",0.4,0.6,0.7,0.284117372484927,"true"
"image-keyboard-response",192,167075,"0.0-3.60-1.60","v74vp9f0nh38r0o",80,"30.csv","","null","resources/maskTrios/L2BB.jpg","null","",NA,NA,NA,NA,""
"image-keyboard-response",193,168286,"0.0-3.60-2.60","v74vp9f0nh38r0o",80,"30.csv","","null","resources/images/coin2.png","null","",NA,NA,NA,NA,""
"image-keyboard-response",194,168723,"0.0-3.61-0.61","v74vp9f0nh38r0o",80,"30.csv","","434.6999999284744","resources/trios/L2T4A1.jpg","39","restless",0.4,0.6,0.6,0.00563677992603062,"true"
"image-keyboard-response",195,169131,"0.0-3.61-1.61","v74vp9f0nh38r0o",80,"30.csv","","null","resources/maskTrios/BBA1.jpg","null","",NA,NA,NA,NA,""
"image-keyboard-response",196,170346,"0.0-3.61-2.61","v74vp9f0nh38r0o",80,"30.csv","","null","resources/images/coin2.png","null","",NA,NA,NA,NA,""
"image-keyboard-response",197,170961,"0.0-3.62-0.62","v74vp9f0nh38r0o",80,"30.csv","","611.8999999761581","resources/trios/L1T2A2.jpg","39","restless",0.4,0.6,0.6,0.256971396156781,"true"
"image-keyboard-response",198,171378,"0.0-3.62-1.62","v74vp9f0nh38r0o",80,"30.csv","","null","resources/maskTrios/BBA2.jpg","null","",NA,NA,NA,NA,""
"image-keyboard-response",199,172589,"0.0-3.62-2.62","v74vp9f0nh38r0o",80,"30.csv","","null","resources/images/coin2.png","null","",NA,NA,NA,NA,""
"image-keyboard-response",200,172867,"0.0-3.63-0.63","v74vp9f0nh38r0o",80,"30.csv","","276.10000002384186","resources/trios/L2T2A2.jpg","37","restless",0.4,0.6,0.6,0.921272777136682,"false"
"image-keyboard-response",201,173281,"0.0-3.63-1.63","v74vp9f0nh38r0o",80,"30.csv","","null","resources/maskTrios/L2BB.jpg","null","",NA,NA,NA,NA,""
"image-keyboard-response",202,174497,"0.0-3.63-2.63","v74vp9f0nh38r0o",80,"30.csv","","null","resources/images/fishbone.png","null","",NA,NA,NA,NA,""
"image-keyboard-response",203,174815,"0.0-3.64-0.64","v74vp9f0nh38r0o",80,"30.csv","","315.3000000715256","resources/trios/L2T4A1.jpg","39","restless",0.4,0.6,0.5,0.161384248724829,"true"
"image-keyboard-response",204,175223,"0.0-3.64-1.64","v74vp9f0nh38r0o",80,"30.csv","","null","resources/maskTrios/BBA1.jpg","null","",NA,NA,NA,NA,""
"image-keyboard-response",205,176441,"0.0-3.64-2.64","v74vp9f0nh38r0o",80,"30.csv","","null","resources/images/coin2.png","null","",NA,NA,NA,NA,""
"image-keyboard-response",206,176632,"0.0-3.65-0.65","v74vp9f0nh38r0o",80,"30.csv","","186.89999997615814","resources/trios/L1T2A2.jpg","39","restless",0.4,0.6,0.5,0.216119416268302,"true"
"image-keyboard-response",207,177041,"0.0-3.65-1.65","v74vp9f0nh38r0o",80,"30.csv","","null","resources/maskTrios/BBA2.jpg","null","",NA,NA,NA,NA,""
"image-keyboard-response",208,178247,"0.0-3.65-2.65","v74vp9f0nh38r0o",80,"30.csv","","null","resources/images/coin2.png","null","",NA,NA,NA,NA,""
"image-keyboard-response",209,178555,"0.0-3.66-0.66","v74vp9f0nh38r0o",80,"30.csv","","305.2000000476837","resources/trios/L1T4A2.jpg","39","restless",0.4,0.6,0.4,0.846690016299203,"false"
"image-keyboard-response",210,178964,"0.0-3.66-1.66","v74vp9f0nh38r0o",80,"30.csv","","null","resources/maskTrios/BBA2.jpg","null","",NA,NA,NA,NA,""
"image-keyboard-response",211,180170,"0.0-3.66-2.66","v74vp9f0nh38r0o",80,"30.csv","","null","resources/images/fishbone.png","null","",NA,NA,NA,NA,""
"image-keyboard-response",212,180331,"0.0-3.67-0.67","v74vp9f0nh38r0o",80,"30.csv","","158.70000004768372","resources/trios/L2T4A2.jpg","37","restless",0.3,0.6,0.4,0.611519886869389,"false"
"image-keyboard-response",213,180739,"0.0-3.67-1.67","v74vp9f0nh38r0o",80,"30.csv","","null","resources/maskTrios/L2BB.jpg","null","",NA,NA,NA,NA,""
"image-keyboard-response",214,181943,"0.0-3.67-2.67","v74vp9f0nh38r0o",80,"30.csv","","null","resources/images/fishbone.png","null","",NA,NA,NA,NA,""
"image-keyboard-response",215,182079,"0.0-3.68-0.68","v74vp9f0nh38r0o",80,"30.csv","","133.40000009536743","resources/trios/L1T2A1.jpg","39","restless",0.3,0.6,0.4,0.728323235309772,"false"
"image-keyboard-response",216,182487,"0.0-3.68-1.68","v74vp9f0nh38r0o",80,"30.csv","","null","resources/maskTrios/BBA1.jpg","null","",NA,NA,NA,NA,""
"image-keyboard-response",217,183695,"0.0-3.68-2.68","v74vp9f0nh38r0o",80,"30.csv","","null","resources/images/fishbone.png","null","",NA,NA,NA,NA,""
"image-keyboard-response",218,184088,"0.0-3.69-0.69","v74vp9f0nh38r0o",80,"30.csv","","389.89999997615814","resources/trios/L1T4A1.jpg","39","restless",0.3,0.6,0.4,0.665614654667133,"false"
"image-keyboard-response",219,184496,"0.0-3.69-1.69","v74vp9f0nh38r0o",80,"30.csv","","null","resources/maskTrios/BBA1.jpg","null","",NA,NA,NA,NA,""
"image-keyboard-response",220,185709,"0.0-3.69-2.69","v74vp9f0nh38r0o",80,"30.csv","","null","resources/images/fishbone.png","null","",NA,NA,NA,NA,""
"image-keyboard-response",221,185813,"0.0-3.70-0.70","v74vp9f0nh38r0o",80,"30.csv","","101.60000002384186","resources/trios/L2T4A1.jpg","39","restless",0.4,0.6,0.4,0.943397842015533,"false"
"image-keyboard-response",222,186228,"0.0-3.70-1.70","v74vp9f0nh38r0o",80,"30.csv","","null","resources/maskTrios/BBA1.jpg","null","",NA,NA,NA,NA,""
"image-keyboard-response",223,187433,"0.0-3.70-2.70","v74vp9f0nh38r0o",80,"30.csv","","null","resources/images/fishbone.png","null","",NA,NA,NA,NA,""
"image-keyboard-response",224,187670,"0.0-3.71-0.71","v74vp9f0nh38r0o",80,"30.csv","","234.69999992847443","resources/trios/L2T4A2.jpg","39","restless",0.4,0.6,0.4,0.549769360431654,"false"
"image-keyboard-response",225,188079,"0.0-3.71-1.71","v74vp9f0nh38r0o",80,"30.csv","","null","resources/maskTrios/BBA2.jpg","null","",NA,NA,NA,NA,""
"image-keyboard-response",226,189283,"0.0-3.71-2.71","v74vp9f0nh38r0o",80,"30.csv","","null","resources/images/fishbone.png","null","",NA,NA,NA,NA,""
"image-keyboard-response",227,189522,"0.0-3.72-0.72","v74vp9f0nh38r0o",80,"30.csv","","236.69999992847443","resources/trios/L1T2A1.jpg","39","restless",0.4,0.6,0.4,0.111293285945942,"true"
"image-keyboard-response",228,189929,"0.0-3.72-1.72","v74vp9f0nh38r0o",80,"30.csv","","null","resources/maskTrios/BBA1.jpg","null","",NA,NA,NA,NA,""
"image-keyboard-response",229,191134,"0.0-3.72-2.72","v74vp9f0nh38r0o",80,"30.csv","","null","resources/images/coin2.png","null","",NA,NA,NA,NA,""
"image-keyboard-response",230,191307,"0.0-3.73-0.73","v74vp9f0nh38r0o",80,"30.csv","","170","resources/trios/L2T4A1.jpg","39","restless",0.4,0.6,0.5,0.64418188078535,"false"
"image-keyboard-response",231,191714,"0.0-3.73-1.73","v74vp9f0nh38r0o",80,"30.csv","","null","resources/maskTrios/BBA1.jpg","null","",NA,NA,NA,NA,""
"image-keyboard-response",232,192922,"0.0-3.73-2.73","v74vp9f0nh38r0o",80,"30.csv","","null","resources/images/fishbone.png","null","",NA,NA,NA,NA,""
"image-keyboard-response",233,193029,"0.0-3.74-0.74","v74vp9f0nh38r0o",80,"30.csv","","104.59999990463257","resources/trios/L2T2A2.jpg","39","restless",0.4,0.6,0.5,0.287688543439916,"true"
"image-keyboard-response",234,193440,"0.0-3.74-1.74","v74vp9f0nh38r0o",80,"30.csv","","null","resources/maskTrios/BBA2.jpg","null","",NA,NA,NA,NA,""
"image-keyboard-response",235,194647,"0.0-3.74-2.74","v74vp9f0nh38r0o",80,"30.csv","","null","resources/images/coin2.png","null","",NA,NA,NA,NA,""
"image-keyboard-response",236,195141,"0.0-3.75-0.75","v74vp9f0nh38r0o",80,"30.csv","","491.7000000476837","resources/trios/L1T4A2.jpg","39","restless",0.4,0.6,0.5,0.900990603346902,"false"
"image-keyboard-response",237,195546,"0.0-3.75-1.75","v74vp9f0nh38r0o",80,"30.csv","","null","resources/maskTrios/BBA2.jpg","null","",NA,NA,NA,NA,""
"image-keyboard-response",238,196756,"0.0-3.75-2.75","v74vp9f0nh38r0o",80,"30.csv","","null","resources/images/fishbone.png","null","",NA,NA,NA,NA,""
"image-keyboard-response",239,196805,"0.0-3.76-0.76","v74vp9f0nh38r0o",80,"30.csv","","46.199999928474426","resources/trios/L2T2A2.jpg","39","restless",0.4,0.6,0.5,0.0350910964250413,"true"
"image-keyboard-response",240,197210,"0.0-3.76-1.76","v74vp9f0nh38r0o",80,"30.csv","","null","resources/maskTrios/BBA2.jpg","null","",NA,NA,NA,NA,""
"image-keyboard-response",241,198422,"0.0-3.76-2.76","v74vp9f0nh38r0o",80,"30.csv","","null","resources/images/coin2.png","null","",NA,NA,NA,NA,""
"image-keyboard-response",242,198910,"0.0-3.77-0.77","v74vp9f0nh38r0o",80,"30.csv","","484.5","resources/trios/L2T2A2.jpg","39","restless",0.3,0.6,0.5,0.170666770748524,"true"
"image-keyboard-response",243,199323,"0.0-3.77-1.77","v74vp9f0nh38r0o",80,"30.csv","","null","resources/maskTrios/BBA2.jpg","null","",NA,NA,NA,NA,""
"image-keyboard-response",244,200537,"0.0-3.77-2.77","v74vp9f0nh38r0o",80,"30.csv","","null","resources/images/coin2.png","null","",NA,NA,NA,NA,""
"image-keyboard-response",245,200937,"0.0-3.78-0.78","v74vp9f0nh38r0o",80,"30.csv","","397.1999999284744","resources/trios/L1T4A1.jpg","39","restless",0.3,0.6,0.5,0.372711184197328,"true"
"image-keyboard-response",246,201342,"0.0-3.78-1.78","v74vp9f0nh38r0o",80,"30.csv","","null","resources/maskTrios/BBA1.jpg","null","",NA,NA,NA,NA,""
"image-keyboard-response",247,202547,"0.0-3.78-2.78","v74vp9f0nh38r0o",80,"30.csv","","null","resources/images/coin2.png","null","",NA,NA,NA,NA,""
"image-keyboard-response",248,202964,"0.0-3.79-0.79","v74vp9f0nh38r0o",80,"30.csv","","413.39999997615814","resources/trios/L2T4A2.jpg","39","restless",0.3,0.6,0.5,0.295598726897763,"true"
"image-keyboard-response",249,203375,"0.0-3.79-1.79","v74vp9f0nh38r0o",80,"30.csv","","null","resources/maskTrios/BBA2.jpg","null","",NA,NA,NA,NA,""
"image-keyboard-response",250,204590,"0.0-3.79-2.79","v74vp9f0nh38r0o",80,"30.csv","","null","resources/images/coin2.png","null","",NA,NA,NA,NA,""
"image-keyboard-response",251,205032,"0.0-3.80-0.80","v74vp9f0nh38r0o",80,"30.csv","","439.2999999523163","resources/trios/L2T4A1.jpg","39","restless",0.3,0.6,0.5,0.342797383688672,"true"
"image-keyboard-response",252,205444,"0.0-3.80-1.80","v74vp9f0nh38r0o",80,"30.csv","","null","resources/maskTrios/BBA1.jpg","null","",NA,NA,NA,NA,""
"image-keyboard-response",253,206654,"0.0-3.80-2.80","v74vp9f0nh38r0o",80,"30.csv","","null","resources/images/coin2.png","null","",NA,NA,NA,NA,""
"image-keyboard-response",254,207165,"0.0-3.81-0.81","v74vp9f0nh38r0o",80,"30.csv","","508","resources/trios/L2T2A2.jpg","39","restless",0.3,0.6,0.5,0.0498189730411454,"true"
"image-keyboard-response",255,207579,"0.0-3.81-1.81","v74vp9f0nh38r0o",80,"30.csv","","null","resources/maskTrios/BBA2.jpg","null","",NA,NA,NA,NA,""
"image-keyboard-response",256,208783,"0.0-3.81-2.81","v74vp9f0nh38r0o",80,"30.csv","","null","resources/images/coin2.png","null","",NA,NA,NA,NA,""
"image-keyboard-response",257,209312,"0.0-3.82-0.82","v74vp9f0nh38r0o",80,"30.csv","","526","resources/trios/L1T2A1.jpg","39","restless",0.3,0.6,0.5,0.788540117470047,"false"
"image-keyboard-response",258,209728,"0.0-3.82-1.82","v74vp9f0nh38r0o",80,"30.csv","","null","resources/maskTrios/BBA1.jpg","null","",NA,NA,NA,NA,""
"image-keyboard-response",259,210937,"0.0-3.82-2.82","v74vp9f0nh38r0o",80,"30.csv","","null","resources/images/fishbone.png","null","",NA,NA,NA,NA,""
"image-keyboard-response",260,211382,"0.0-3.83-0.83","v74vp9f0nh38r0o",80,"30.csv","","442.3000000715256","resources/trios/L2T4A1.jpg","39","restless",0.3,0.6,0.5,0.46569076514299,"true"
"image-keyboard-response",261,211788,"0.0-3.83-1.83","v74vp9f0nh38r0o",80,"30.csv","","null","resources/maskTrios/BBA1.jpg","null","",NA,NA,NA,NA,""
"image-keyboard-response",262,212991,"0.0-3.83-2.83","v74vp9f0nh38r0o",80,"30.csv","","null","resources/images/coin2.png","null","",NA,NA,NA,NA,""
"image-keyboard-response",263,213506,"0.0-3.84-0.84","v74vp9f0nh38r0o",80,"30.csv","","512.6000000238419","resources/trios/L1T4A1.jpg","39","restless",0.3,0.6,0.5,0.325840604984145,"true"
"image-keyboard-response",264,213912,"0.0-3.84-1.84","v74vp9f0nh38r0o",80,"30.csv","","null","resources/maskTrios/BBA1.jpg","null","",NA,NA,NA,NA,""
"image-keyboard-response",265,215118,"0.0-3.84-2.84","v74vp9f0nh38r0o",80,"30.csv","","null","resources/images/coin2.png","null","",NA,NA,NA,NA,""
"image-keyboard-response",266,215397,"0.0-3.85-0.85","v74vp9f0nh38r0o",80,"30.csv","","276","resources/trios/L2T2A1.jpg","39","restless",0.2,0.6,0.5,0.81580652478903,"false"
"image-keyboard-response",267,215808,"0.0-3.85-1.85","v74vp9f0nh38r0o",80,"30.csv","","null","resources/maskTrios/BBA1.jpg","null","",NA,NA,NA,NA,""
"image-keyboard-response",268,217023,"0.0-3.85-2.85","v74vp9f0nh38r0o",80,"30.csv","","null","resources/images/fishbone.png","null","",NA,NA,NA,NA,""
"image-keyboard-response",269,217648,"0.0-3.86-0.86","v74vp9f0nh38r0o",80,"30.csv","","622.2000000476837","resources/trios/L1T4A2.jpg","39","restless",0.2,0.6,0.5,0.330248578948076,"true"
"image-keyboard-response",270,218054,"0.0-3.86-1.86","v74vp9f0nh38r0o",80,"30.csv","","null","resources/maskTrios/BBA2.jpg","null","",NA,NA,NA,NA,""
"image-keyboard-response",271,219257,"0.0-3.86-2.86","v74vp9f0nh38r0o",80,"30.csv","","null","resources/images/coin2.png","null","",NA,NA,NA,NA,""
"image-keyboard-response",272,219836,"0.0-3.87-0.87","v74vp9f0nh38r0o",80,"30.csv","","576.6999999284744","resources/trios/L1T2A1.jpg","39","restless",0.2,0.6,0.5,0.418140663790249,"true"
"image-keyboard-response",273,220254,"0.0-3.87-1.87","v74vp9f0nh38r0o",80,"30.csv","","null","resources/maskTrios/BBA1.jpg","null","",NA,NA,NA,NA,""
"image-keyboard-response",274,221461,"0.0-3.87-2.87","v74vp9f0nh38r0o",80,"30.csv","","null","resources/images/coin2.png","null","",NA,NA,NA,NA,""
"image-keyboard-response",275,221642,"0.0-3.88-0.88","v74vp9f0nh38r0o",80,"30.csv","","178.39999997615814","resources/trios/L1T2A1.jpg","39","restless",0.3,0.6,0.5,0.214325950985433,"true"
"image-keyboard-response",276,222057,"0.0-3.88-1.88","v74vp9f0nh38r0o",80,"30.csv","","null","resources/maskTrios/BBA1.jpg","null","",NA,NA,NA,NA,""
"image-keyboard-response",277,223259,"0.0-3.88-2.88","v74vp9f0nh38r0o",80,"30.csv","","null","resources/images/coin2.png","null","",NA,NA,NA,NA,""
"image-keyboard-response",278,223425,"0.0-3.89-0.89","v74vp9f0nh38r0o",80,"30.csv","","162.89999997615814","resources/trios/L1T2A2.jpg","39","restless",0.3,0.6,0.5,0.215811017288559,"true"
"image-keyboard-response",279,223840,"0.0-3.89-1.89","v74vp9f0nh38r0o",80,"30.csv","","null","resources/maskTrios/BBA2.jpg","null","",NA,NA,NA,NA,""
"image-keyboard-response",280,225050,"0.0-3.89-2.89","v74vp9f0nh38r0o",80,"30.csv","","null","resources/images/coin2.png","null","",NA,NA,NA,NA,""
"image-keyboard-response",281,225398,"0.0-3.90-0.90","v74vp9f0nh38r0o",80,"30.csv","","344.60000002384186","resources/trios/L2T2A1.jpg","39","restless",0.3,0.5,0.5,0.0513120433415652,"true"
"image-keyboard-response",282,225807,"0.0-3.90-1.90","v74vp9f0nh38r0o",80,"30.csv","","null","resources/maskTrios/BBA1.jpg","null","",NA,NA,NA,NA,""
"image-keyboard-response",283,227024,"0.0-3.90-2.90","v74vp9f0nh38r0o",80,"30.csv","","null","resources/images/coin2.png","null","",NA,NA,NA,NA,""
"image-keyboard-response",284,227599,"0.0-3.91-0.91","v74vp9f0nh38r0o",80,"30.csv","","572","resources/trios/L1T4A1.jpg","39","restless",0.3,0.5,0.5,0.599939696431466,"false"
"image-keyboard-response",285,228009,"0.0-3.91-1.91","v74vp9f0nh38r0o",80,"30.csv","","null","resources/maskTrios/BBA1.jpg","null","",NA,NA,NA,NA,""
"image-keyboard-response",286,229213,"0.0-3.91-2.91","v74vp9f0nh38r0o",80,"30.csv","","null","resources/images/fishbone.png","null","",NA,NA,NA,NA,""
"image-keyboard-response",287,229434,"0.0-3.92-0.92","v74vp9f0nh38r0o",80,"30.csv","","217.69999992847443","resources/trios/L2T4A1.jpg","39","restless",0.3,0.5,0.5,0.136421001219152,"true"
"image-keyboard-response",288,229843,"0.0-3.92-1.92","v74vp9f0nh38r0o",80,"30.csv","","null","resources/maskTrios/BBA1.jpg","null","",NA,NA,NA,NA,""
"image-keyboard-response",289,231059,"0.0-3.92-2.92","v74vp9f0nh38r0o",80,"30.csv","","null","resources/images/coin2.png","null","",NA,NA,NA,NA,""
"image-keyboard-response",290,231335,"0.0-3.93-0.93","v74vp9f0nh38r0o",80,"30.csv","","274.5","resources/trios/L1T4A2.jpg","39","restless",0.3,0.5,0.5,0.1426462338993,"true"
"image-keyboard-response",291,231741,"0.0-3.93-1.93","v74vp9f0nh38r0o",80,"30.csv","","null","resources/maskTrios/BBA2.jpg","null","",NA,NA,NA,NA,""
"image-keyboard-response",292,232944,"0.0-3.93-2.93","v74vp9f0nh38r0o",80,"30.csv","","null","resources/images/coin2.png","null","",NA,NA,NA,NA,""
"image-keyboard-response",293,233218,"0.0-3.94-0.94","v74vp9f0nh38r0o",80,"30.csv","","271.7000000476837","resources/trios/L2T2A2.jpg","39","restless",0.3,0.5,0.4,0.328912482639379,"true"
"image-keyboard-response",294,233638,"0.0-3.94-1.94","v74vp9f0nh38r0o",80,"30.csv","","null","resources/maskTrios/BBA2.jpg","null","",NA,NA,NA,NA,""
"image-keyboard-response",295,234843,"0.0-3.94-2.94","v74vp9f0nh38r0o",80,"30.csv","","null","resources/images/coin2.png","null","",NA,NA,NA,NA,""
"image-keyboard-response",296,235360,"0.0-3.95-0.95","v74vp9f0nh38r0o",80,"30.csv","","513.5","resources/trios/L2T2A2.jpg","39","restless",0.3,0.6,0.4,0.701761180467312,"false"
"image-keyboard-response",297,235777,"0.0-3.95-1.95","v74vp9f0nh38r0o",80,"30.csv","","null","resources/maskTrios/BBA2.jpg","null","",NA,NA,NA,NA,""
"image-keyboard-response",298,236980,"0.0-3.95-2.95","v74vp9f0nh38r0o",80,"30.csv","","null","resources/images/fishbone.png","null","",NA,NA,NA,NA,""
"image-keyboard-response",299,237350,"0.0-3.96-0.96","v74vp9f0nh38r0o",80,"30.csv","","367.8000000715256","resources/trios/L1T4A1.jpg","39","restless",0.3,0.6,0.4,0.921380656288531,"false"
"image-keyboard-response",300,237755,"0.0-3.96-1.96","v74vp9f0nh38r0o",80,"30.csv","","null","resources/maskTrios/BBA1.jpg","null","",NA,NA,NA,NA,""
"image-keyboard-response",301,238972,"0.0-3.96-2.96","v74vp9f0nh38r0o",80,"30.csv","","null","resources/images/fishbone.png","null","",NA,NA,NA,NA,""
"image-keyboard-response",302,239315,"0.0-3.97-0.97","v74vp9f0nh38r0o",80,"30.csv","","341.10000002384186","resources/trios/L1T4A1.jpg","39","restless",0.4,0.6,0.4,0.0834856765907155,"true"
"image-keyboard-response",303,239723,"0.0-3.97-1.97","v74vp9f0nh38r0o",80,"30.csv","","null","resources/maskTrios/BBA1.jpg","null","",NA,NA,NA,NA,""
"image-keyboard-response",304,240940,"0.0-3.97-2.97","v74vp9f0nh38r0o",80,"30.csv","","null","resources/images/coin2.png","null","",NA,NA,NA,NA,""
"image-keyboard-response",305,241395,"0.0-3.98-0.98","v74vp9f0nh38r0o",80,"30.csv","","452.60000002384186","resources/trios/L2T2A1.jpg","39","restless",0.4,0.6,0.4,0.739501359036212,"false"
"image-keyboard-response",306,241802,"0.0-3.98-1.98","v74vp9f0nh38r0o",80,"30.csv","","null","resources/maskTrios/BBA1.jpg","null","",NA,NA,NA,NA,""
"image-keyboard-response",307,243010,"0.0-3.98-2.98","v74vp9f0nh38r0o",80,"30.csv","","null","resources/images/fishbone.png","null","",NA,NA,NA,NA,""
"image-keyboard-response",308,243316,"0.0-3.99-0.99","v74vp9f0nh38r0o",80,"30.csv","","302.89999997615814","resources/trios/L1T2A2.jpg","39","restless",0.4,0.6,0.4,0.975443990126843,"false"
"image-keyboard-response",309,243722,"0.0-3.99-1.99","v74vp9f0nh38r0o",80,"30.csv","","null","resources/maskTrios/BBA2.jpg","null","",NA,NA,NA,NA,""
"image-keyboard-response",310,244934,"0.0-3.99-2.99","v74vp9f0nh38r0o",80,"30.csv","","null","resources/images/fishbone.png","null","",NA,NA,NA,NA,""
"image-keyboard-response",311,245231,"0.0-3.100-0.100","v74vp9f0nh38r0o",80,"30.csv","","294.39999997615814","resources/trios/L1T4A2.jpg","39","restless",0.3,0.6,0.4,0.479391904956538,"false"
"image-keyboard-response",312,245641,"0.0-3.100-1.100","v74vp9f0nh38r0o",80,"30.csv","","null","resources/maskTrios/BBA2.jpg","null","",NA,NA,NA,NA,""
"image-keyboard-response",313,246856,"0.0-3.100-2.100","v74vp9f0nh38r0o",80,"30.csv","","null","resources/images/fishbone.png","null","",NA,NA,NA,NA,""
"image-keyboard-response",314,247720,"0.0-3.101-0.101","v74vp9f0nh38r0o",80,"30.csv","","861.1999999284744","resources/trios/L2T4A1.jpg","39","restless",0.3,0.6,0.4,0.605924845688552,"false"
"image-keyboard-response",315,248124,"0.0-3.101-1.101","v74vp9f0nh38r0o",80,"30.csv","","null","resources/maskTrios/BBA1.jpg","null","",NA,NA,NA,NA,""
"image-keyboard-response",316,249339,"0.0-3.101-2.101","v74vp9f0nh38r0o",80,"30.csv","","null","resources/images/fishbone.png","null","",NA,NA,NA,NA,""
"image-keyboard-response",317,249491,"0.0-3.102-0.102","v74vp9f0nh38r0o",80,"30.csv","","149.60000002384186","resources/trios/L2T2A2.jpg","39","restless",0.3,0.6,0.4,0.270409501225024,"true"
"image-keyboard-response",318,249909,"0.0-3.102-1.102","v74vp9f0nh38r0o",80,"30.csv","","null","resources/maskTrios/BBA2.jpg","null","",NA,NA,NA,NA,""
"image-keyboard-response",319,251126,"0.0-3.102-2.102","v74vp9f0nh38r0o",80,"30.csv","","null","resources/images/coin2.png","null","",NA,NA,NA,NA,""
"image-keyboard-response",320,251323,"0.0-3.103-0.103","v74vp9f0nh38r0o",80,"30.csv","","194.30000007152557","resources/trios/L2T2A1.jpg","39","restless",0.4,0.6,0.4,0.550923396848127,"false"
"image-keyboard-response",321,251741,"0.0-3.103-1.103","v74vp9f0nh38r0o",80,"30.csv","","null","resources/maskTrios/BBA1.jpg","null","",NA,NA,NA,NA,""
"image-keyboard-response",322,252951,"0.0-3.103-2.103","v74vp9f0nh38r0o",80,"30.csv","","null","resources/images/fishbone.png","null","",NA,NA,NA,NA,""
"image-keyboard-response",323,253334,"0.0-3.104-0.104","v74vp9f0nh38r0o",80,"30.csv","","379.2999999523163","resources/trios/L2T4A2.jpg","39","restless",0.4,0.6,0.3,0.0818093258106618,"true"
"image-keyboard-response",324,253743,"0.0-3.104-1.104","v74vp9f0nh38r0o",80,"30.csv","","null","resources/maskTrios/BBA2.jpg","null","",NA,NA,NA,NA,""
"image-keyboard-response",325,254954,"0.0-3.104-2.104","v74vp9f0nh38r0o",80,"30.csv","","null","resources/images/coin2.png","null","",NA,NA,NA,NA,""
"image-keyboard-response",326,255321,"0.0-3.105-0.105","v74vp9f0nh38r0o",80,"30.csv","","365.3000000715256","resources/trios/L2T4A2.jpg","39","restless",0.4,0.6,0.3,0.559630071551897,"false"
"image-keyboard-response",327,255736,"0.0-3.105-1.105","v74vp9f0nh38r0o",80,"30.csv","","null","resources/maskTrios/BBA2.jpg","null","",NA,NA,NA,NA,""
"image-keyboard-response",328,256944,"0.0-3.105-2.105","v74vp9f0nh38r0o",80,"30.csv","","null","resources/images/fishbone.png","null","",NA,NA,NA,NA,""
"image-keyboard-response",329,257141,"0.0-3.106-0.106","v74vp9f0nh38r0o",80,"30.csv","","194.20000004768372","resources/trios/L1T2A2.jpg","39","restless",0.4,0.6,0.3,0.69276453577435,"false"
"image-keyboard-response",330,257558,"0.0-3.106-1.106","v74vp9f0nh38r0o",80,"30.csv","","null","resources/maskTrios/BBA2.jpg","null","",NA,NA,NA,NA,""
"image-keyboard-response",331,258765,"0.0-3.106-2.106","v74vp9f0nh38r0o",80,"30.csv","","null","resources/images/fishbone.png","null","",NA,NA,NA,NA,""
"image-keyboard-response",332,259148,"0.0-3.107-0.107","v74vp9f0nh38r0o",80,"30.csv","","380","resources/trios/L2T4A2.jpg","39","restless",0.4,0.6,0.3,0.407302151918324,"false"
"image-keyboard-response",333,259559,"0.0-3.107-1.107","v74vp9f0nh38r0o",80,"30.csv","","null","resources/maskTrios/BBA2.jpg","null","",NA,NA,NA,NA,""
"image-keyboard-response",334,260769,"0.0-3.107-2.107","v74vp9f0nh38r0o",80,"30.csv","","null","resources/images/fishbone.png","null","",NA,NA,NA,NA,""
"image-keyboard-response",335,261120,"0.0-3.108-0.108","v74vp9f0nh38r0o",80,"30.csv","","347.90000009536743","resources/trios/L2T2A1.jpg","39","restless",0.4,0.6,0.3,0.174076313619587,"true"
"image-keyboard-response",336,261524,"0.0-3.108-1.108","v74vp9f0nh38r0o",80,"30.csv","","null","resources/maskTrios/BBA1.jpg","null","",NA,NA,NA,NA,""
"image-keyboard-response",337,262739,"0.0-3.108-2.108","v74vp9f0nh38r0o",80,"30.csv","","null","resources/images/coin2.png","null","",NA,NA,NA,NA,""
"image-keyboard-response",338,263034,"0.0-3.109-0.109","v74vp9f0nh38r0o",80,"30.csv","","292.59999990463257","resources/trios/L2T4A1.jpg","39","restless",0.4,0.6,0.3,0.146566377938539,"true"
"image-keyboard-response",339,263440,"0.0-3.109-1.109","v74vp9f0nh38r0o",80,"30.csv","","null","resources/maskTrios/BBA1.jpg","null","",NA,NA,NA,NA,""
"image-keyboard-response",340,264655,"0.0-3.109-2.109","v74vp9f0nh38r0o",80,"30.csv","","null","resources/images/coin2.png","null","",NA,NA,NA,NA,""
"image-keyboard-response",341,265068,"0.0-3.110-0.110","v74vp9f0nh38r0o",80,"30.csv","","411","resources/trios/L2T4A1.jpg","39","restless",0.4,0.6,0.3,0.900576490656086,"false"
"image-keyboard-response",342,265474,"0.0-3.110-1.110","v74vp9f0nh38r0o",80,"30.csv","","null","resources/maskTrios/BBA1.jpg","null","",NA,NA,NA,NA,""
"image-keyboard-response",343,266684,"0.0-3.110-2.110","v74vp9f0nh38r0o",80,"30.csv","","null","resources/images/fishbone.png","null","",NA,NA,NA,NA,""
"image-keyboard-response",344,266999,"0.0-3.111-0.111","v74vp9f0nh38r0o",80,"30.csv","","313.2000000476837","resources/trios/L2T2A2.jpg","39","restless",0.4,0.7,0.3,0.985629746471941,"false"
"image-keyboard-response",345,267411,"0.0-3.111-1.111","v74vp9f0nh38r0o",80,"30.csv","","null","resources/maskTrios/BBA2.jpg","null","",NA,NA,NA,NA,""
"image-keyboard-response",346,268615,"0.0-3.111-2.111","v74vp9f0nh38r0o",80,"30.csv","","null","resources/images/fishbone.png","null","",NA,NA,NA,NA,""
"image-keyboard-response",347,268931,"0.0-3.112-0.112","v74vp9f0nh38r0o",80,"30.csv","","312.89999997615814","resources/trios/L1T2A1.jpg","39","restless",0.4,0.7,0.3,0.27573818790031,"true"
"image-keyboard-response",348,269340,"0.0-3.112-1.112","v74vp9f0nh38r0o",80,"30.csv","","null","resources/maskTrios/BBA1.jpg","null","",NA,NA,NA,NA,""
"image-keyboard-response",349,270556,"0.0-3.112-2.112","v74vp9f0nh38r0o",80,"30.csv","","null","resources/images/coin2.png","null","",NA,NA,NA,NA,""
"image-keyboard-response",350,270966,"0.0-3.113-0.113","v74vp9f0nh38r0o",80,"30.csv","","408.1999999284744","resources/trios/L2T2A2.jpg","39","restless",0.4,0.8,0.3,0.816585428672666,"false"
"image-keyboard-response",351,271376,"0.0-3.113-1.113","v74vp9f0nh38r0o",80,"30.csv","","null","resources/maskTrios/BBA2.jpg","null","",NA,NA,NA,NA,""
"image-keyboard-response",352,272588,"0.0-3.113-2.113","v74vp9f0nh38r0o",80,"30.csv","","null","resources/images/fishbone.png","null","",NA,NA,NA,NA,""
"image-keyboard-response",353,272711,"0.0-3.114-0.114","v74vp9f0nh38r0o",80,"30.csv","","120.10000002384186","resources/trios/L2T2A1.jpg","39","restless",0.4,0.8,0.3,0.725441319369436,"false"
"image-keyboard-response",354,273126,"0.0-3.114-1.114","v74vp9f0nh38r0o",80,"30.csv","","null","resources/maskTrios/BBA1.jpg","null","",NA,NA,NA,NA,""
"image-keyboard-response",355,274339,"0.0-3.114-2.114","v74vp9f0nh38r0o",80,"30.csv","","null","resources/images/fishbone.png","null","",NA,NA,NA,NA,""
"image-keyboard-response",356,274770,"0.0-3.115-0.115","v74vp9f0nh38r0o",80,"30.csv","","428.7000000476837","resources/trios/L2T4A1.jpg","39","restless",0.4,0.8,0.3,0.818253102845949,"false"
"image-keyboard-response",357,275176,"0.0-3.115-1.115","v74vp9f0nh38r0o",80,"30.csv","","null","resources/maskTrios/BBA1.jpg","null","",NA,NA,NA,NA,""
"image-keyboard-response",358,276379,"0.0-3.115-2.115","v74vp9f0nh38r0o",80,"30.csv","","null","resources/images/fishbone.png","null","",NA,NA,NA,NA,""
"image-keyboard-response",359,276701,"0.0-3.116-0.116","v74vp9f0nh38r0o",80,"30.csv","","318.60000002384186","resources/trios/L1T2A2.jpg","39","restless",0.4,0.8,0.3,0.624311213662202,"false"
"image-keyboard-response",360,277106,"0.0-3.116-1.116","v74vp9f0nh38r0o",80,"30.csv","","null","resources/maskTrios/BBA2.jpg","null","",NA,NA,NA,NA,""
"image-keyboard-response",361,278319,"0.0-3.116-2.116","v74vp9f0nh38r0o",80,"30.csv","","null","resources/images/fishbone.png","null","",NA,NA,NA,NA,""
"image-keyboard-response",362,278693,"0.0-3.117-0.117","v74vp9f0nh38r0o",80,"30.csv","","371.5","resources/trios/L2T2A2.jpg","39","restless",0.4,0.8,0.2,0.332507880603076,"false"
"image-keyboard-response",363,279109,"0.0-3.117-1.117","v74vp9f0nh38r0o",80,"30.csv","","null","resources/maskTrios/BBA2.jpg","null","",NA,NA,NA,NA,""
"image-keyboard-response",364,280323,"0.0-3.117-2.117","v74vp9f0nh38r0o",80,"30.csv","","null","resources/images/fishbone.png","null","",NA,NA,NA,NA,""
"image-keyboard-response",365,280522,"0.0-3.118-0.118","v74vp9f0nh38r0o",80,"30.csv","","195.70000004768372","resources/trios/L1T2A2.jpg","39","restless",0.4,0.8,0.2,0.365003831566528,"false"
"image-keyboard-response",366,280926,"0.0-3.118-1.118","v74vp9f0nh38r0o",80,"30.csv","","null","resources/maskTrios/BBA2.jpg","null","",NA,NA,NA,NA,""
"image-keyboard-response",367,282135,"0.0-3.118-2.118","v74vp9f0nh38r0o",80,"30.csv","","null","resources/images/fishbone.png","null","",NA,NA,NA,NA,""
"image-keyboard-response",368,282527,"0.0-3.119-0.119","v74vp9f0nh38r0o",80,"30.csv","","387.90000009536743","resources/trios/L1T2A1.jpg","37","restless",0.4,0.7,0.2,0.231798926015801,"true"
"image-keyboard-response",369,282936,"0.0-3.119-1.119","v74vp9f0nh38r0o",80,"30.csv","","null","resources/maskTrios/L1BB.jpg","null","",NA,NA,NA,NA,""
"image-keyboard-response",370,284143,"0.0-3.119-2.119","v74vp9f0nh38r0o",80,"30.csv","","null","resources/images/coin2.png","null","",NA,NA,NA,NA,""
"image-keyboard-response",371,284342,"0.0-3.120-0.120","v74vp9f0nh38r0o",80,"30.csv","","196.69999992847443","resources/trios/L1T4A2.jpg","39","restless",0.4,0.7,0.2,0.0268484899957793,"true"
"image-keyboard-response",372,284761,"0.0-3.120-1.120","v74vp9f0nh38r0o",80,"30.csv","","null","resources/maskTrios/BBA2.jpg","null","",NA,NA,NA,NA,""
"image-keyboard-response",373,285974,"0.0-3.120-2.120","v74vp9f0nh38r0o",80,"30.csv","","null","resources/images/coin2.png","null","",NA,NA,NA,NA,""
"image-keyboard-response",374,286384,"0.0-3.121-0.121","v74vp9f0nh38r0o",80,"30.csv","","407.1999999284744","resources/trios/L1T4A2.jpg","39","restless",0.4,0.7,0.2,0.114615834203378,"true"
"image-keyboard-response",375,286788,"0.0-3.121-1.121","v74vp9f0nh38r0o",80,"30.csv","","null","resources/maskTrios/BBA2.jpg","null","",NA,NA,NA,NA,""
"image-keyboard-response",376,288006,"0.0-3.121-2.121","v74vp9f0nh38r0o",80,"30.csv","","null","resources/images/coin2.png","null","",NA,NA,NA,NA,""
"image-keyboard-response",377,288144,"0.0-3.122-0.122","v74vp9f0nh38r0o",80,"30.csv","","135.5","resources/trios/L1T4A1.jpg","39","restless",0.4,0.7,0.2,0.225043332753316,"false"
"image-keyboard-response",378,288555,"0.0-3.122-1.122","v74vp9f0nh38r0o",80,"30.csv","","null","resources/maskTrios/BBA1.jpg","null","",NA,NA,NA,NA,""
"image-keyboard-response",379,289773,"0.0-3.122-2.122","v74vp9f0nh38r0o",80,"30.csv","","null","resources/images/fishbone.png","null","",NA,NA,NA,NA,""
"image-keyboard-response",380,291124,"0.0-3.123-0.123","v74vp9f0nh38r0o",80,"30.csv","","1348","resources/trios/L1T2A2.jpg","39","restless",0.5,0.7,0.2,0.361828495214885,"false"
"image-keyboard-response",381,291540,"0.0-3.123-1.123","v74vp9f0nh38r0o",80,"30.csv","","null","resources/maskTrios/BBA2.jpg","null","",NA,NA,NA,NA,""
"image-keyboard-response",382,292755,"0.0-3.123-2.123","v74vp9f0nh38r0o",80,"30.csv","","null","resources/images/fishbone.png","null","",NA,NA,NA,NA,""
"image-keyboard-response",383,293085,"0.0-3.124-0.124","v74vp9f0nh38r0o",80,"30.csv","","327.09999990463257","resources/trios/L1T2A2.jpg","39","restless",0.5,0.7,0.2,0.696459998510546,"false"
"image-keyboard-response",384,293494,"0.0-3.124-1.124","v74vp9f0nh38r0o",80,"30.csv","","null","resources/maskTrios/BBA2.jpg","null","",NA,NA,NA,NA,""
"image-keyboard-response",385,294702,"0.0-3.124-2.124","v74vp9f0nh38r0o",80,"30.csv","","null","resources/images/fishbone.png","null","",NA,NA,NA,NA,""
"image-keyboard-response",386,294933,"0.0-3.125-0.125","v74vp9f0nh38r0o",80,"30.csv","","229.70000004768372","resources/trios/L2T2A2.jpg","39","restless",0.5,0.7,0.2,0.291445660541605,"false"
"image-keyboard-response",387,295339,"0.0-3.125-1.125","v74vp9f0nh38r0o",80,"30.csv","","null","resources/maskTrios/BBA2.jpg","null","",NA,NA,NA,NA,""
"image-keyboard-response",388,296544,"0.0-3.125-2.125","v74vp9f0nh38r0o",80,"30.csv","","null","resources/images/fishbone.png","null","",NA,NA,NA,NA,""
"image-keyboard-response",389,296902,"0.0-3.126-0.126","v74vp9f0nh38r0o",80,"30.csv","","355.60000002384186","resources/trios/L1T2A2.jpg","39","restless",0.5,0.6,0.2,0.285564076512568,"false"
"image-keyboard-response",390,297307,"0.0-3.126-1.126","v74vp9f0nh38r0o",80,"30.csv","","null","resources/maskTrios/BBA2.jpg","null","",NA,NA,NA,NA,""
"image-keyboard-response",391,298520,"0.0-3.126-2.126","v74vp9f0nh38r0o",80,"30.csv","","null","resources/images/fishbone.png","null","",NA,NA,NA,NA,""
"image-keyboard-response",392,298959,"0.0-3.127-0.127","v74vp9f0nh38r0o",80,"30.csv","","436.3000000715256","resources/trios/L2T4A2.jpg","39","restless",0.5,0.6,0.2,0.273869971395365,"false"
"image-keyboard-response",393,299376,"0.0-3.127-1.127","v74vp9f0nh38r0o",80,"30.csv","","null","resources/maskTrios/BBA2.jpg","null","",NA,NA,NA,NA,""
"image-keyboard-response",394,300582,"0.0-3.127-2.127","v74vp9f0nh38r0o",80,"30.csv","","null","resources/images/fishbone.png","null","",NA,NA,NA,NA,""
"image-keyboard-response",395,300836,"0.0-3.128-0.128","v74vp9f0nh38r0o",80,"30.csv","","251","resources/trios/L2T4A2.jpg","39","restless",0.5,0.6,0.2,0.921200448159009,"false"
"image-keyboard-response",396,301241,"0.0-3.128-1.128","v74vp9f0nh38r0o",80,"30.csv","","null","resources/maskTrios/BBA2.jpg","null","",NA,NA,NA,NA,""
"image-keyboard-response",397,302450,"0.0-3.128-2.128","v74vp9f0nh38r0o",80,"30.csv","","null","resources/images/fishbone.png","null","",NA,NA,NA,NA,""
"image-keyboard-response",398,302922,"0.0-3.129-0.129","v74vp9f0nh38r0o",80,"30.csv","","469.09999990463257","resources/trios/L2T4A1.jpg","39","restless",0.5,0.6,0.2,0.162795093468457,"true"
"image-keyboard-response",399,303335,"0.0-3.129-1.129","v74vp9f0nh38r0o",80,"30.csv","","null","resources/maskTrios/BBA1.jpg","null","",NA,NA,NA,NA,""
"image-keyboard-response",400,304554,"0.0-3.129-2.129","v74vp9f0nh38r0o",80,"30.csv","","null","resources/images/coin2.png","null","",NA,NA,NA,NA,""
"image-keyboard-response",401,305006,"0.0-3.130-0.130","v74vp9f0nh38r0o",80,"30.csv","","448.89999997615814","resources/trios/L1T2A2.jpg","39","restless",0.5,0.6,0.3,0.709775521451798,"false"
"image-keyboard-response",402,305424,"0.0-3.130-1.130","v74vp9f0nh38r0o",80,"30.csv","","null","resources/maskTrios/BBA2.jpg","null","",NA,NA,NA,NA,""
"image-keyboard-response",403,306635,"0.0-3.130-2.130","v74vp9f0nh38r0o",80,"30.csv","","null","resources/images/fishbone.png","null","",NA,NA,NA,NA,""
"image-keyboard-response",404,307219,"0.0-3.131-0.131","v74vp9f0nh38r0o",80,"30.csv","","581.1000000238419","resources/trios/L1T4A2.jpg","39","restless",0.6,0.6,0.3,0.0504037067195975,"true"
"image-keyboard-response",405,307625,"0.0-3.131-1.131","v74vp9f0nh38r0o",80,"30.csv","","null","resources/maskTrios/BBA2.jpg","null","",NA,NA,NA,NA,""
"image-keyboard-response",406,308842,"0.0-3.131-2.131","v74vp9f0nh38r0o",80,"30.csv","","null","resources/images/coin2.png","null","",NA,NA,NA,NA,""
"image-keyboard-response",407,309055,"0.0-3.132-0.132","v74vp9f0nh38r0o",80,"30.csv","","210","resources/trios/L2T2A2.jpg","39","restless",0.6,0.5,0.3,0.787529390326441,"false"
"image-keyboard-response",408,309472,"0.0-3.132-1.132","v74vp9f0nh38r0o",80,"30.csv","","null","resources/maskTrios/BBA2.jpg","null","",NA,NA,NA,NA,""
"image-keyboard-response",409,310696,"0.0-3.132-2.132","v74vp9f0nh38r0o",80,"30.csv","","null","resources/images/fishbone.png","null","",NA,NA,NA,NA,""
"image-keyboard-response",410,310904,"0.0-3.133-0.133","v74vp9f0nh38r0o",80,"30.csv","","207","resources/trios/L2T2A2.jpg","39","restless",0.6,0.5,0.3,0.0509587910800382,"true"
"image-keyboard-response",411,311307,"0.0-3.133-1.133","v74vp9f0nh38r0o",80,"30.csv","","null","resources/maskTrios/BBA2.jpg","null","",NA,NA,NA,NA,""
"image-keyboard-response",412,312513,"0.0-3.133-2.133","v74vp9f0nh38r0o",80,"30.csv","","null","resources/images/coin2.png","null","",NA,NA,NA,NA,""
"image-keyboard-response",413,313220,"0.0-3.134-0.134","v74vp9f0nh38r0o",80,"30.csv","","704.7999999523163","resources/trios/L1T4A1.jpg","39","restless",0.6,0.5,0.3,0.319978264853095,"false"
"image-keyboard-response",414,313629,"0.0-3.134-1.134","v74vp9f0nh38r0o",80,"30.csv","","null","resources/maskTrios/BBA1.jpg","null","",NA,NA,NA,NA,""
"image-keyboard-response",415,314837,"0.0-3.134-2.134","v74vp9f0nh38r0o",80,"30.csv","","null","resources/images/fishbone.png","null","",NA,NA,NA,NA,""
"image-keyboard-response",416,315168,"0.0-3.135-0.135","v74vp9f0nh38r0o",80,"30.csv","","326.60000002384186","resources/trios/L1T4A1.jpg","39","restless",0.6,0.5,0.4,0.39064482179348,"true"
"image-keyboard-response",417,315571,"0.0-3.135-1.135","v74vp9f0nh38r0o",80,"30.csv","","null","resources/maskTrios/BBA1.jpg","null","",NA,NA,NA,NA,""
"image-keyboard-response",418,316779,"0.0-3.135-2.135","v74vp9f0nh38r0o",80,"30.csv","","null","resources/images/coin2.png","null","",NA,NA,NA,NA,""
"image-keyboard-response",419,317031,"0.0-3.136-0.136","v74vp9f0nh38r0o",80,"30.csv","","249.29999995231628","resources/trios/L1T4A2.jpg","39","restless",0.6,0.5,0.4,0.588635772059601,"false"
"image-keyboard-response",420,317439,"0.0-3.136-1.136","v74vp9f0nh38r0o",80,"30.csv","","null","resources/maskTrios/BBA2.jpg","null","",NA,NA,NA,NA,""
"image-keyboard-response",421,318649,"0.0-3.136-2.136","v74vp9f0nh38r0o",80,"30.csv","","null","resources/images/fishbone.png","null","",NA,NA,NA,NA,""
"image-keyboard-response",422,318935,"0.0-3.137-0.137","v74vp9f0nh38r0o",80,"30.csv","","283.2000000476837","resources/trios/L1T2A1.jpg","39","restless",0.6,0.5,0.4,0.276664130912241,"true"
"image-keyboard-response",423,319344,"0.0-3.137-1.137","v74vp9f0nh38r0o",80,"30.csv","","null","resources/maskTrios/BBA1.jpg","null","",NA,NA,NA,NA,""
"image-keyboard-response",424,320557,"0.0-3.137-2.137","v74vp9f0nh38r0o",80,"30.csv","","null","resources/images/coin2.png","null","",NA,NA,NA,NA,""
"image-keyboard-response",425,320944,"0.0-3.138-0.138","v74vp9f0nh38r0o",80,"30.csv","","384.09999990463257","resources/trios/L1T4A2.jpg","39","restless",0.6,0.5,0.4,0.105072387692301,"true"
"image-keyboard-response",426,321353,"0.0-3.138-1.138","v74vp9f0nh38r0o",80,"30.csv","","null","resources/maskTrios/BBA2.jpg","null","",NA,NA,NA,NA,""
"image-keyboard-response",427,322564,"0.0-3.138-2.138","v74vp9f0nh38r0o",80,"30.csv","","null","resources/images/coin2.png","null","",NA,NA,NA,NA,""
"image-keyboard-response",428,322888,"0.0-3.139-0.139","v74vp9f0nh38r0o",80,"30.csv","","321.10000002384186","resources/trios/L2T4A2.jpg","39","restless",0.6,0.4,0.4,0.923286943621559,"false"
"image-keyboard-response",429,323292,"0.0-3.139-1.139","v74vp9f0nh38r0o",80,"30.csv","","null","resources/maskTrios/BBA2.jpg","null","",NA,NA,NA,NA,""
"image-keyboard-response",430,324500,"0.0-3.139-2.139","v74vp9f0nh38r0o",80,"30.csv","","null","resources/images/fishbone.png","null","",NA,NA,NA,NA,""
"image-keyboard-response",431,324766,"0.0-3.140-0.140","v74vp9f0nh38r0o",80,"30.csv","","262.7000000476837","resources/trios/L1T4A1.jpg","39","restless",0.6,0.4,0.3,0.141965829506369,"true"
"image-keyboard-response",432,325174,"0.0-3.140-1.140","v74vp9f0nh38r0o",80,"30.csv","","null","resources/maskTrios/BBA1.jpg","null","",NA,NA,NA,NA,""
"image-keyboard-response",433,326386,"0.0-3.140-2.140","v74vp9f0nh38r0o",80,"30.csv","","null","resources/images/coin2.png","null","",NA,NA,NA,NA,""
"image-keyboard-response",434,327425,"0.0-3.141-0.141","v74vp9f0nh38r0o",80,"30.csv","","1036.1999999284744","resources/trios/L2T2A2.jpg","39","restless",0.7,0.4,0.3,0.0730269769334884,"true"
"image-keyboard-response",435,327830,"0.0-3.141-1.141","v74vp9f0nh38r0o",80,"30.csv","","null","resources/maskTrios/BBA2.jpg","null","",NA,NA,NA,NA,""
"image-keyboard-response",436,329042,"0.0-3.141-2.141","v74vp9f0nh38r0o",80,"30.csv","","null","resources/images/coin2.png","null","",NA,NA,NA,NA,""
"image-keyboard-response",437,329192,"0.0-3.142-0.142","v74vp9f0nh38r0o",80,"30.csv","","147.10000002384186","resources/trios/L2T2A2.jpg","39","restless",0.7,0.4,0.4,0.526651748431581,"false"
"image-keyboard-response",438,329606,"0.0-3.142-1.142","v74vp9f0nh38r0o",80,"30.csv","","null","resources/maskTrios/BBA2.jpg","null","",NA,NA,NA,NA,""
"image-keyboard-response",439,330817,"0.0-3.142-2.142","v74vp9f0nh38r0o",80,"30.csv","","null","resources/images/fishbone.png","null","",NA,NA,NA,NA,""
"image-keyboard-response",440,331217,"0.0-3.143-0.143","v74vp9f0nh38r0o",80,"30.csv","","396.2999999523163","resources/trios/L2T2A1.jpg","39","restless",0.7,0.4,0.4,0.437360437888191,"false"
"image-keyboard-response",441,331625,"0.0-3.143-1.143","v74vp9f0nh38r0o",80,"30.csv","","null","resources/maskTrios/BBA1.jpg","null","",NA,NA,NA,NA,""
"image-keyboard-response",442,332828,"0.0-3.143-2.143","v74vp9f0nh38r0o",80,"30.csv","","null","resources/images/fishbone.png","null","",NA,NA,NA,NA,""
"image-keyboard-response",443,333165,"0.0-3.144-0.144","v74vp9f0nh38r0o",80,"30.csv","","334.1999999284744","resources/trios/L2T4A2.jpg","39","restless",0.7,0.4,0.4,0.486680369999301,"false"
"image-keyboard-response",444,333576,"0.0-3.144-1.144","v74vp9f0nh38r0o",80,"30.csv","","null","resources/maskTrios/BBA2.jpg","null","",NA,NA,NA,NA,""
"image-keyboard-response",445,334792,"0.0-3.144-2.144","v74vp9f0nh38r0o",80,"30.csv","","null","resources/images/fishbone.png","null","",NA,NA,NA,NA,""
"image-keyboard-response",446,335020,"0.0-3.145-0.145","v74vp9f0nh38r0o",80,"30.csv","","224.70000004768372","resources/trios/L2T4A2.jpg","39","restless",0.7,0.4,0.4,0.48407850912203,"false"
"image-keyboard-response",447,335428,"0.0-3.145-1.145","v74vp9f0nh38r0o",80,"30.csv","","null","resources/maskTrios/BBA2.jpg","null","",NA,NA,NA,NA,""
"image-keyboard-response",448,336631,"0.0-3.145-2.145","v74vp9f0nh38r0o",80,"30.csv","","null","resources/images/fishbone.png","null","",NA,NA,NA,NA,""
"image-keyboard-response",449,336870,"0.0-3.146-0.146","v74vp9f0nh38r0o",80,"30.csv","","236.5","resources/trios/L1T4A1.jpg","39","restless",0.7,0.4,0.4,0.935961841747294,"false"
"image-keyboard-response",450,337287,"0.0-3.146-1.146","v74vp9f0nh38r0o",80,"30.csv","","null","resources/maskTrios/BBA1.jpg","null","",NA,NA,NA,NA,""
"image-keyboard-response",451,338494,"0.0-3.146-2.146","v74vp9f0nh38r0o",80,"30.csv","","null","resources/images/fishbone.png","null","",NA,NA,NA,NA,""
"image-keyboard-response",452,338782,"0.0-3.147-0.147","v74vp9f0nh38r0o",80,"30.csv","","285","resources/trios/L1T4A2.jpg","39","restless",0.7,0.5,0.4,0.229638409600986,"true"
"image-keyboard-response",453,339195,"0.0-3.147-1.147","v74vp9f0nh38r0o",80,"30.csv","","null","resources/maskTrios/BBA2.jpg","null","",NA,NA,NA,NA,""
"image-keyboard-response",454,340407,"0.0-3.147-2.147","v74vp9f0nh38r0o",80,"30.csv","","null","resources/images/coin2.png","null","",NA,NA,NA,NA,""
"image-keyboard-response",455,340865,"0.0-3.148-0.148","v74vp9f0nh38r0o",80,"30.csv","","455.10000002384186","resources/trios/L1T4A1.jpg","39","restless",0.7,0.5,0.4,0.489518313511331,"false"
"image-keyboard-response",456,341275,"0.0-3.148-1.148","v74vp9f0nh38r0o",80,"30.csv","","null","resources/maskTrios/BBA1.jpg","null","",NA,NA,NA,NA,""
"image-keyboard-response",457,342492,"0.0-3.148-2.148","v74vp9f0nh38r0o",80,"30.csv","","null","resources/images/fishbone.png","null","",NA,NA,NA,NA,""
"image-keyboard-response",458,342658,"0.0-3.149-0.149","v74vp9f0nh38r0o",80,"30.csv","","162.60000002384186","resources/trios/L1T2A2.jpg","39","restless",0.7,0.4,0.3,0.142610236566419,"true"
"image-keyboard-response",459,343075,"0.0-3.149-1.149","v74vp9f0nh38r0o",80,"30.csv","","null","resources/maskTrios/BBA2.jpg","null","",NA,NA,NA,NA,""
"image-keyboard-response",460,344284,"0.0-3.149-2.149","v74vp9f0nh38r0o",80,"30.csv","","null","resources/images/coin2.png","null","",NA,NA,NA,NA,""
"image-keyboard-response",461,344564,"0.0-3.150-0.150","v74vp9f0nh38r0o",80,"30.csv","","276.89999997615814","resources/trios/L2T2A1.jpg","39","restless",0.7,0.4,0.4,0.158502299145846,"true"
"image-keyboard-response",462,344974,"0.0-3.150-1.150","v74vp9f0nh38r0o",80,"30.csv","","null","resources/maskTrios/BBA1.jpg","null","",NA,NA,NA,NA,""
"image-keyboard-response",463,346185,"0.0-3.150-2.150","v74vp9f0nh38r0o",80,"30.csv","","null","resources/images/coin2.png","null","",NA,NA,NA,NA,""
"image-keyboard-response",464,346501,"0.0-3.151-0.151","v74vp9f0nh38r0o",80,"30.csv","","313.2000000476837","resources/trios/L2T2A1.jpg","39","restless",0.7,0.4,0.4,0.0406296887282522,"true"
"image-keyboard-response",465,346907,"0.0-3.151-1.151","v74vp9f0nh38r0o",80,"30.csv","","null","resources/maskTrios/BBA1.jpg","null","",NA,NA,NA,NA,""
"image-keyboard-response",466,348116,"0.0-3.151-2.151","v74vp9f0nh38r0o",80,"30.csv","","null","resources/images/coin2.png","null","",NA,NA,NA,NA,""
"image-keyboard-response",467,348650,"0.0-3.152-0.152","v74vp9f0nh38r0o",80,"30.csv","","530.5","resources/trios/L2T2A2.jpg","39","restless",0.7,0.4,0.4,0.620543011742779,"false"
"image-keyboard-response",468,349058,"0.0-3.152-1.152","v74vp9f0nh38r0o",80,"30.csv","","null","resources/maskTrios/BBA2.jpg","null","",NA,NA,NA,NA,""
"image-keyboard-response",469,350270,"0.0-3.152-2.152","v74vp9f0nh38r0o",80,"30.csv","","null","resources/images/fishbone.png","null","",NA,NA,NA,NA,""
"image-keyboard-response",470,350730,"0.0-3.153-0.153","v74vp9f0nh38r0o",80,"30.csv","","459.5","resources/trios/L2T2A2.jpg","39","restless",0.7,0.3,0.4,0.750667662778709,"false"
"image-keyboard-response",471,351140,"0.0-3.153-1.153","v74vp9f0nh38r0o",80,"30.csv","","null","resources/maskTrios/BBA2.jpg","null","",NA,NA,NA,NA,""
"image-keyboard-response",472,352349,"0.0-3.153-2.153","v74vp9f0nh38r0o",80,"30.csv","","null","resources/images/fishbone.png","null","",NA,NA,NA,NA,""
"image-keyboard-response",473,352664,"0.0-3.154-0.154","v74vp9f0nh38r0o",80,"30.csv","","311.60000002384186","resources/trios/L1T2A1.jpg","39","restless",0.7,0.3,0.4,0.74272922874448,"false"
"image-keyboard-response",474,353069,"0.0-3.154-1.154","v74vp9f0nh38r0o",80,"30.csv","","null","resources/maskTrios/BBA1.jpg","null","",NA,NA,NA,NA,""
"image-keyboard-response",475,354277,"0.0-3.154-2.154","v74vp9f0nh38r0o",80,"30.csv","","null","resources/images/fishbone.png","null","",NA,NA,NA,NA,""
"image-keyboard-response",476,354599,"0.0-3.155-0.155","v74vp9f0nh38r0o",80,"30.csv","","318.89999997615814","resources/trios/L2T4A2.jpg","39","restless",0.8,0.3,0.3,0.0527626829892498,"true"
"image-keyboard-response",477,355005,"0.0-3.155-1.155","v74vp9f0nh38r0o",80,"30.csv","","null","resources/maskTrios/BBA2.jpg","null","",NA,NA,NA,NA,""
"image-keyboard-response",478,356223,"0.0-3.155-2.155","v74vp9f0nh38r0o",80,"30.csv","","null","resources/images/coin2.png","null","",NA,NA,NA,NA,""
"image-keyboard-response",479,356414,"0.0-3.156-0.156","v74vp9f0nh38r0o",80,"30.csv","","188","resources/trios/L1T2A2.jpg","39","restless",0.8,0.3,0.3,0.00885046060662331,"true"
"image-keyboard-response",480,356820,"0.0-3.156-1.156","v74vp9f0nh38r0o",80,"30.csv","","null","resources/maskTrios/BBA2.jpg","null","",NA,NA,NA,NA,""
"image-keyboard-response",481,358026,"0.0-3.156-2.156","v74vp9f0nh38r0o",80,"30.csv","","null","resources/images/coin2.png","null","",NA,NA,NA,NA,""
"image-keyboard-response",482,358218,"0.0-3.157-0.157","v74vp9f0nh38r0o",80,"30.csv","","189.79999995231628","resources/trios/L1T2A2.jpg","39","restless",0.8,0.3,0.3,0.748244839471511,"false"
"image-keyboard-response",483,358629,"0.0-3.157-1.157","v74vp9f0nh38r0o",80,"30.csv","","null","resources/maskTrios/BBA2.jpg","null","",NA,NA,NA,NA,""
"image-keyboard-response",484,359834,"0.0-3.157-2.157","v74vp9f0nh38r0o",80,"30.csv","","null","resources/images/fishbone.png","null","",NA,NA,NA,NA,""
"image-keyboard-response",485,360103,"0.0-3.158-0.158","v74vp9f0nh38r0o",80,"30.csv","","266.39999997615814","resources/trios/L1T2A1.jpg","39","restless",0.8,0.3,0.3,0.411735404541384,"false"
"image-keyboard-response",486,360522,"0.0-3.158-1.158","v74vp9f0nh38r0o",80,"30.csv","","null","resources/maskTrios/BBA1.jpg","null","",NA,NA,NA,NA,""
"image-keyboard-response",487,361734,"0.0-3.158-2.158","v74vp9f0nh38r0o",80,"30.csv","","null","resources/images/fishbone.png","null","",NA,NA,NA,NA,""
"image-keyboard-response",488,362036,"0.0-3.159-0.159","v74vp9f0nh38r0o",80,"30.csv","","298.7000000476837","resources/trios/L1T4A1.jpg","39","restless",0.8,0.3,0.3,0.546790429856089,"false"
"image-keyboard-response",489,362454,"0.0-3.159-1.159","v74vp9f0nh38r0o",80,"30.csv","","null","resources/maskTrios/BBA1.jpg","null","",NA,NA,NA,NA,""
"image-keyboard-response",490,363657,"0.0-3.159-2.159","v74vp9f0nh38r0o",80,"30.csv","","null","resources/images/fishbone.png","null","",NA,NA,NA,NA,""
"image-keyboard-response",491,363871,"0.0-3.160-0.160","v74vp9f0nh38r0o",80,"30.csv","","210.5","resources/trios/L2T4A2.jpg","39","restless",0.8,0.3,0.3,0.753354263861507,"false"
"image-keyboard-response",492,364287,"0.0-3.160-1.160","v74vp9f0nh38r0o",80,"30.csv","","null","resources/maskTrios/BBA2.jpg","null","",NA,NA,NA,NA,""
"image-keyboard-response",493,365509,"0.0-3.160-2.160","v74vp9f0nh38r0o",80,"30.csv","","null","resources/images/fishbone.png","null","",NA,NA,NA,NA,""
"image-keyboard-response",494,365718,"0.0-3.161-0.161","v74vp9f0nh38r0o",80,"30.csv","","205.60000002384186","resources/trios/L1T2A1.jpg","39","restless",0.8,0.4,0.3,0.386481470909648,"false"
"image-keyboard-response",495,366132,"0.0-3.161-1.161","v74vp9f0nh38r0o",80,"30.csv","","null","resources/maskTrios/BBA1.jpg","null","",NA,NA,NA,NA,""
"image-keyboard-response",496,367340,"0.0-3.161-2.161","v74vp9f0nh38r0o",80,"30.csv","","null","resources/images/fishbone.png","null","",NA,NA,NA,NA,""
"image-keyboard-response",497,367491,"0.0-3.162-0.162","v74vp9f0nh38r0o",80,"30.csv","","147.70000004768372","resources/trios/L1T4A2.jpg","39","restless",0.7,0.4,0.3,0.966207241044943,"false"
"image-keyboard-response",498,367903,"0.0-3.162-1.162","v74vp9f0nh38r0o",80,"30.csv","","null","resources/maskTrios/BBA2.jpg","null","",NA,NA,NA,NA,""
"image-keyboard-response",499,369110,"0.0-3.162-2.162","v74vp9f0nh38r0o",80,"30.csv","","null","resources/images/fishbone.png","null","",NA,NA,NA,NA,""
"image-keyboard-response",500,369519,"0.0-3.163-0.163","v74vp9f0nh38r0o",80,"30.csv","","404.7999999523163","resources/trios/L1T2A2.jpg","39","restless",0.7,0.4,0.3,0.00159978525477755,"true"
"image-keyboard-response",501,369937,"0.0-3.163-1.163","v74vp9f0nh38r0o",80,"30.csv","","null","resources/maskTrios/BBA2.jpg","null","",NA,NA,NA,NA,""
"image-keyboard-response",502,371148,"0.0-3.163-2.163","v74vp9f0nh38r0o",80,"30.csv","","null","resources/images/coin2.png","null","",NA,NA,NA,NA,""
"image-keyboard-response",503,371498,"0.0-3.164-0.164","v74vp9f0nh38r0o",80,"30.csv","","346.60000002384186","resources/trios/L2T2A2.jpg","39","restless",0.7,0.4,0.3,0.919751576230828,"false"
"image-keyboard-response",504,371906,"0.0-3.164-1.164","v74vp9f0nh38r0o",80,"30.csv","","null","resources/maskTrios/BBA2.jpg","null","",NA,NA,NA,NA,""
"image-keyboard-response",505,373121,"0.0-3.164-2.164","v74vp9f0nh38r0o",80,"30.csv","","null","resources/images/fishbone.png","null","",NA,NA,NA,NA,""
"image-keyboard-response",506,373450,"0.0-3.165-0.165","v74vp9f0nh38r0o",80,"30.csv","","326","resources/trios/L1T2A1.jpg","39","restless",0.7,0.4,0.3,0.854171885084489,"false"
"image-keyboard-response",507,373853,"0.0-3.165-1.165","v74vp9f0nh38r0o",80,"30.csv","","null","resources/maskTrios/BBA1.jpg","null","",NA,NA,NA,NA,""
"image-keyboard-response",508,375059,"0.0-3.165-2.165","v74vp9f0nh38r0o",80,"30.csv","","null","resources/images/fishbone.png","null","",NA,NA,NA,NA,""
"image-keyboard-response",509,375252,"0.0-3.166-0.166","v74vp9f0nh38r0o",80,"30.csv","","191.10000002384186","resources/trios/L1T4A2.jpg","39","restless",0.7,0.4,0.3,0.950724290525613,"false"
"image-keyboard-response",510,375667,"0.0-3.166-1.166","v74vp9f0nh38r0o",80,"30.csv","","null","resources/maskTrios/BBA2.jpg","null","",NA,NA,NA,NA,""
"image-keyboard-response",511,376883,"0.0-3.166-2.166","v74vp9f0nh38r0o",80,"30.csv","","null","resources/images/fishbone.png","null","",NA,NA,NA,NA,""
"image-keyboard-response",512,377230,"0.0-3.167-0.167","v74vp9f0nh38r0o",80,"30.csv","","344","resources/trios/L1T4A2.jpg","39","restless",0.7,0.4,0.3,0.96153655990883,"false"
"image-keyboard-response",513,377637,"0.0-3.167-1.167","v74vp9f0nh38r0o",80,"30.csv","","null","resources/maskTrios/BBA2.jpg","null","",NA,NA,NA,NA,""
"image-keyboard-response",514,378852,"0.0-3.167-2.167","v74vp9f0nh38r0o",80,"30.csv","","null","resources/images/fishbone.png","null","",NA,NA,NA,NA,""
"image-keyboard-response",515,379330,"0.0-3.168-0.168","v74vp9f0nh38r0o",80,"30.csv","","475.5","resources/trios/L2T4A1.jpg","39","restless",0.7,0.4,0.3,0.692993724216155,"false"
"image-keyboard-response",516,379738,"0.0-3.168-1.168","v74vp9f0nh38r0o",80,"30.csv","","null","resources/maskTrios/BBA1.jpg","null","",NA,NA,NA,NA,""
"image-keyboard-response",517,380946,"0.0-3.168-2.168","v74vp9f0nh38r0o",80,"30.csv","","null","resources/images/fishbone.png","null","",NA,NA,NA,NA,""
"image-keyboard-response",518,381332,"0.0-3.169-0.169","v74vp9f0nh38r0o",80,"30.csv","","382.5","resources/trios/L1T2A1.jpg","39","restless",0.7,0.4,0.3,0.0765294554909011,"true"
"image-keyboard-response",519,381740,"0.0-3.169-1.169","v74vp9f0nh38r0o",80,"30.csv","","null","resources/maskTrios/BBA1.jpg","null","",NA,NA,NA,NA,""
"image-keyboard-response",520,382958,"0.0-3.169-2.169","v74vp9f0nh38r0o",80,"30.csv","","null","resources/images/coin2.png","null","",NA,NA,NA,NA,""
"image-keyboard-response",521,383168,"0.0-3.170-0.170","v74vp9f0nh38r0o",80,"30.csv","","206.79999995231628","resources/trios/L2T4A1.jpg","39","restless",0.8,0.4,0.3,0.720696133075764,"false"
"image-keyboard-response",522,383573,"0.0-3.170-1.170","v74vp9f0nh38r0o",80,"30.csv","","null","resources/maskTrios/BBA1.jpg","null","",NA,NA,NA,NA,""
"image-keyboard-response",523,384777,"0.0-3.170-2.170","v74vp9f0nh38r0o",80,"30.csv","","null","resources/images/fishbone.png","null","",NA,NA,NA,NA,""
"image-keyboard-response",524,385142,"0.0-3.171-0.171","v74vp9f0nh38r0o",80,"30.csv","","361.8000000715256","resources/trios/L2T2A1.jpg","39","restless",0.8,0.4,0.3,0.221116207359021,"true"
"image-keyboard-response",525,385545,"0.0-3.171-1.171","v74vp9f0nh38r0o",80,"30.csv","","null","resources/maskTrios/BBA1.jpg","null","",NA,NA,NA,NA,""
"image-keyboard-response",526,386747,"0.0-3.171-2.171","v74vp9f0nh38r0o",80,"30.csv","","null","resources/images/coin2.png","null","",NA,NA,NA,NA,""
"image-keyboard-response",527,387015,"0.0-3.172-0.172","v74vp9f0nh38r0o",80,"30.csv","","265.39999997615814","resources/trios/L1T4A1.jpg","39","restless",0.9,0.4,0.3,0.318984283749897,"false"
"image-keyboard-response",528,387428,"0.0-3.172-1.172","v74vp9f0nh38r0o",80,"30.csv","","null","resources/maskTrios/BBA1.jpg","null","",NA,NA,NA,NA,""
"image-keyboard-response",529,388629,"0.0-3.172-2.172","v74vp9f0nh38r0o",80,"30.csv","","null","resources/images/fishbone.png","null","",NA,NA,NA,NA,""
"image-keyboard-response",530,388897,"0.0-3.173-0.173","v74vp9f0nh38r0o",80,"30.csv","","264.8000000715256","resources/trios/L1T4A1.jpg","39","restless",0.9,0.4,0.4,0.784400568527318,"false"
"image-keyboard-response",531,389302,"0.0-3.173-1.173","v74vp9f0nh38r0o",80,"30.csv","","null","resources/maskTrios/BBA1.jpg","null","",NA,NA,NA,NA,""
"image-keyboard-response",532,390519,"0.0-3.173-2.173","v74vp9f0nh38r0o",80,"30.csv","","null","resources/images/fishbone.png","null","",NA,NA,NA,NA,""
"image-keyboard-response",533,390704,"0.0-3.174-0.174","v74vp9f0nh38r0o",80,"30.csv","","182.5","resources/trios/L1T2A2.jpg","39","restless",0.9,0.4,0.4,0.481263846013857,"false"
"image-keyboard-response",534,391121,"0.0-3.174-1.174","v74vp9f0nh38r0o",80,"30.csv","","null","resources/maskTrios/BBA2.jpg","null","",NA,NA,NA,NA,""
"image-keyboard-response",535,392329,"0.0-3.174-2.174","v74vp9f0nh38r0o",80,"30.csv","","null","resources/images/fishbone.png","null","",NA,NA,NA,NA,""
"image-keyboard-response",536,392557,"0.0-3.175-0.175","v74vp9f0nh38r0o",80,"30.csv","","225.80000007152557","resources/trios/L1T2A2.jpg","39","restless",0.8,0.3,0.4,0.0401148198136638,"true"
"image-keyboard-response",537,392968,"0.0-3.175-1.175","v74vp9f0nh38r0o",80,"30.csv","","null","resources/maskTrios/BBA2.jpg","null","",NA,NA,NA,NA,""
"image-keyboard-response",538,394179,"0.0-3.175-2.175","v74vp9f0nh38r0o",80,"30.csv","","null","resources/images/coin2.png","null","",NA,NA,NA,NA,""
"image-keyboard-response",539,395481,"0.0-3.176-0.176","v74vp9f0nh38r0o",80,"30.csv","","1299.2999999523163","resources/trios/L2T4A2.jpg","37","restless",0.7,0.3,0.4,0.292815629420454,"true"
"image-keyboard-response",540,395883,"0.0-3.176-1.176","v74vp9f0nh38r0o",80,"30.csv","","null","resources/maskTrios/L2BB.jpg","null","",NA,NA,NA,NA,""
"image-keyboard-response",541,397090,"0.0-3.176-2.176","v74vp9f0nh38r0o",80,"30.csv","","null","resources/images/coin2.png","null","",NA,NA,NA,NA,""
"image-keyboard-response",542,397144,"0.0-3.177-0.177","v74vp9f0nh38r0o",80,"30.csv","","51.199999928474426","resources/trios/L2T2A1.jpg","39","restless",0.7,0.3,0.4,0.952087882387416,"false"
"image-keyboard-response",543,397553,"0.0-3.177-1.177","v74vp9f0nh38r0o",80,"30.csv","","null","resources/maskTrios/BBA1.jpg","null","",NA,NA,NA,NA,""
"image-keyboard-response",544,398758,"0.0-3.177-2.177","v74vp9f0nh38r0o",80,"30.csv","","null","resources/images/fishbone.png","null","",NA,NA,NA,NA,""
"image-keyboard-response",545,398861,"0.0-3.178-0.178","v74vp9f0nh38r0o",80,"30.csv","","99","resources/trios/L2T4A2.jpg","39","restless",0.7,0.3,0.4,0.149688484107513,"true"
"image-keyboard-response",546,399272,"0.0-3.178-1.178","v74vp9f0nh38r0o",80,"30.csv","","null","resources/maskTrios/BBA2.jpg","null","",NA,NA,NA,NA,""
"image-keyboard-response",547,400475,"0.0-3.178-2.178","v74vp9f0nh38r0o",80,"30.csv","","null","resources/images/coin2.png","null","",NA,NA,NA,NA,""
"image-keyboard-response",548,400638,"0.0-3.179-0.179","v74vp9f0nh38r0o",80,"30.csv","","160.20000004768372","resources/trios/L2T4A2.jpg","37","restless",0.7,0.3,0.3,0.618871268746087,"true"
"image-keyboard-response",549,401041,"0.0-3.179-1.179","v74vp9f0nh38r0o",80,"30.csv","","null","resources/maskTrios/L2BB.jpg","null","",NA,NA,NA,NA,""
"image-keyboard-response",550,402255,"0.0-3.179-2.179","v74vp9f0nh38r0o",80,"30.csv","","null","resources/images/coin2.png","null","",NA,NA,NA,NA,""
"image-keyboard-response",551,402260,"0.0-3.180-0.180","v74vp9f0nh38r0o",80,"30.csv","","0.2999999523162842","resources/trios/L1T2A1.jpg","39","restless",0.7,0.3,0.3,0.0139418012504766,"true"
"image-keyboard-response",552,402671,"0.0-3.180-1.180","v74vp9f0nh38r0o",80,"30.csv","","null","resources/maskTrios/BBA1.jpg","null","",NA,NA,NA,NA,""
"image-keyboard-response",553,403877,"0.0-3.180-2.180","v74vp9f0nh38r0o",80,"30.csv","","null","resources/images/coin2.png","null","",NA,NA,NA,NA,""
"image-keyboard-response",554,404008,"0.0-3.181-0.181","v74vp9f0nh38r0o",80,"30.csv","","127.5","resources/trios/L2T2A1.jpg","39","restless",0.7,0.3,0.3,0.455466130609322,"false"
"image-keyboard-response",555,404421,"0.0-3.181-1.181","v74vp9f0nh38r0o",80,"30.csv","","null","resources/maskTrios/BBA1.jpg","null","",NA,NA,NA,NA,""
"image-keyboard-response",556,405638,"0.0-3.181-2.181","v74vp9f0nh38r0o",80,"30.csv","","null","resources/images/fishbone.png","null","",NA,NA,NA,NA,""
"image-keyboard-response",557,405741,"0.0-3.182-0.182","v74vp9f0nh38r0o",80,"30.csv","","101","resources/trios/L2T4A2.jpg","37","restless",0.6,0.3,0.3,0.833749351603787,"false"
"image-keyboard-response",558,406153,"0.0-3.182-1.182","v74vp9f0nh38r0o",80,"30.csv","","null","resources/maskTrios/L2BB.jpg","null","",NA,NA,NA,NA,""
"image-keyboard-response",559,407359,"0.0-3.182-2.182","v74vp9f0nh38r0o",80,"30.csv","","null","resources/images/fishbone.png","null","",NA,NA,NA,NA,""
"image-keyboard-response",560,407538,"0.0-3.183-0.183","v74vp9f0nh38r0o",80,"30.csv","","176.39999997615814","resources/trios/L2T2A1.jpg","39","restless",0.6,0.3,0.3,0.923501196564301,"false"
"image-keyboard-response",561,407942,"0.0-3.183-1.183","v74vp9f0nh38r0o",80,"30.csv","","null","resources/maskTrios/BBA1.jpg","null","",NA,NA,NA,NA,""
"image-keyboard-response",562,409148,"0.0-3.183-2.183","v74vp9f0nh38r0o",80,"30.csv","","null","resources/images/fishbone.png","null","",NA,NA,NA,NA,""
"image-keyboard-response",563,409189,"0.0-3.184-0.184","v74vp9f0nh38r0o",80,"30.csv","","38","resources/trios/L2T4A2.jpg","39","restless",0.6,0.3,0.3,0.932635409509553,"false"
"image-keyboard-response",564,409603,"0.0-3.184-1.184","v74vp9f0nh38r0o",80,"30.csv","","null","resources/maskTrios/BBA2.jpg","null","",NA,NA,NA,NA,""
"image-keyboard-response",565,410810,"0.0-3.184-2.184","v74vp9f0nh38r0o",80,"30.csv","","null","resources/images/fishbone.png","null","",NA,NA,NA,NA,""
"image-keyboard-response",566,410927,"0.0-3.185-0.185","v74vp9f0nh38r0o",80,"30.csv","","114.29999995231628","resources/trios/L2T2A1.jpg","37","restless",0.6,0.4,0.3,0.201422864695613,"true"
"image-keyboard-response",567,411339,"0.0-3.185-1.185","v74vp9f0nh38r0o",80,"30.csv","","null","resources/maskTrios/L2BB.jpg","null","",NA,NA,NA,NA,""
"image-keyboard-response",568,412544,"0.0-3.185-2.185","v74vp9f0nh38r0o",80,"30.csv","","null","resources/images/coin2.png","null","",NA,NA,NA,NA,""
"image-keyboard-response",569,412921,"0.0-3.186-0.186","v74vp9f0nh38r0o",80,"30.csv","","374.5","resources/trios/L1T4A1.jpg","39","restless",0.6,0.4,0.3,0.384508274495931,"false"
"image-keyboard-response",570,413339,"0.0-3.186-1.186","v74vp9f0nh38r0o",80,"30.csv","","null","resources/maskTrios/BBA1.jpg","null","",NA,NA,NA,NA,""
"image-keyboard-response",571,414542,"0.0-3.186-2.186","v74vp9f0nh38r0o",80,"30.csv","","null","resources/images/fishbone.png","null","",NA,NA,NA,NA,""
"image-keyboard-response",572,414724,"0.0-3.187-0.187","v74vp9f0nh38r0o",80,"30.csv","","179.60000002384186","resources/trios/L1T4A2.jpg","39","restless",0.6,0.4,0.3,0.632364459951743,"false"
"image-keyboard-response",573,415135,"0.0-3.187-1.187","v74vp9f0nh38r0o",80,"30.csv","","null","resources/maskTrios/BBA2.jpg","null","",NA,NA,NA,NA,""
"image-keyboard-response",574,416337,"0.0-3.187-2.187","v74vp9f0nh38r0o",80,"30.csv","","null","resources/images/fishbone.png","null","",NA,NA,NA,NA,""
"image-keyboard-response",575,416480,"0.0-3.188-0.188","v74vp9f0nh38r0o",80,"30.csv","","140.10000002384186","resources/trios/L2T2A1.jpg","37","restless",0.6,0.4,0.3,0.439900812982346,"true"
"image-keyboard-response",576,416887,"0.0-3.188-1.188","v74vp9f0nh38r0o",80,"30.csv","","null","resources/maskTrios/L2BB.jpg","null","",NA,NA,NA,NA,""
"image-keyboard-response",577,418091,"0.0-3.188-2.188","v74vp9f0nh38r0o",80,"30.csv","","null","resources/images/coin2.png","null","",NA,NA,NA,NA,""
"image-keyboard-response",578,418366,"0.0-3.189-0.189","v74vp9f0nh38r0o",80,"30.csv","","272","resources/trios/L2T4A1.jpg","37","restless",0.6,0.4,0.3,0.231270626496056,"true"
"image-keyboard-response",579,418769,"0.0-3.189-1.189","v74vp9f0nh38r0o",80,"30.csv","","null","resources/maskTrios/L2BB.jpg","null","",NA,NA,NA,NA,""
"image-keyboard-response",580,419976,"0.0-3.189-2.189","v74vp9f0nh38r0o",80,"30.csv","","null","resources/images/coin2.png","null","",NA,NA,NA,NA,""
"image-keyboard-response",581,420030,"0.0-3.190-0.190","v74vp9f0nh38r0o",80,"30.csv","","51.300000071525574","resources/trios/L2T4A1.jpg","37","restless",0.6,0.4,0.3,0.617880259001274,"false"
"image-keyboard-response",582,420444,"0.0-3.190-1.190","v74vp9f0nh38r0o",80,"30.csv","","null","resources/maskTrios/L2BB.jpg","null","",NA,NA,NA,NA,""
"image-keyboard-response",583,421665,"0.0-3.190-2.190","v74vp9f0nh38r0o",80,"30.csv","","null","resources/images/fishbone.png","null","",NA,NA,NA,NA,""
"image-keyboard-response",584,423369,"0.0-3.191-0.191","v74vp9f0nh38r0o",80,"30.csv","","1701.3999999761581","resources/trios/L2T2A1.jpg","39","restless",0.6,0.4,0.3,0.758418317818084,"false"
"image-keyboard-response",585,423785,"0.0-3.191-1.191","v74vp9f0nh38r0o",80,"30.csv","","null","resources/maskTrios/BBA1.jpg","null","",NA,NA,NA,NA,""
"image-keyboard-response",586,424992,"0.0-3.191-2.191","v74vp9f0nh38r0o",80,"30.csv","","null","resources/images/fishbone.png","null","",NA,NA,NA,NA,""
"image-keyboard-response",587,425128,"0.0-3.192-0.192","v74vp9f0nh38r0o",80,"30.csv","","133","resources/trios/L2T4A2.jpg","39","restless",0.6,0.4,0.4,0.834997149188181,"false"
"image-keyboard-response",588,425536,"0.0-3.192-1.192","v74vp9f0nh38r0o",80,"30.csv","","null","resources/maskTrios/BBA2.jpg","null","",NA,NA,NA,NA,""
"image-keyboard-response",589,426741,"0.0-3.192-2.192","v74vp9f0nh38r0o",80,"30.csv","","null","resources/images/fishbone.png","null","",NA,NA,NA,NA,""
"image-keyboard-response",590,426970,"0.0-3.193-0.193","v74vp9f0nh38r0o",80,"30.csv","","226","resources/trios/L1T4A1.jpg","39","restless",0.6,0.4,0.4,0.582929276233271,"false"
"image-keyboard-response",591,427379,"0.0-3.193-1.193","v74vp9f0nh38r0o",80,"30.csv","","null","resources/maskTrios/BBA1.jpg","null","",NA,NA,NA,NA,""
"image-keyboard-response",592,428583,"0.0-3.193-2.193","v74vp9f0nh38r0o",80,"30.csv","","null","resources/images/fishbone.png","null","",NA,NA,NA,NA,""
"image-keyboard-response",593,428801,"0.0-3.194-0.194","v74vp9f0nh38r0o",80,"30.csv","","215.30000007152557","resources/trios/L1T4A1.jpg","37","restless",0.6,0.4,0.5,0.897178543531583,"false"
"image-keyboard-response",594,429217,"0.0-3.194-1.194","v74vp9f0nh38r0o",80,"30.csv","","null","resources/maskTrios/L1BB.jpg","null","",NA,NA,NA,NA,""
"image-keyboard-response",595,430425,"0.0-3.194-2.194","v74vp9f0nh38r0o",80,"30.csv","","null","resources/images/fishbone.png","null","",NA,NA,NA,NA,""
"image-keyboard-response",596,430626,"0.0-3.195-0.195","v74vp9f0nh38r0o",80,"30.csv","","197.5","resources/trios/L1T2A1.jpg","37","restless",0.5,0.4,0.5,0.0229185621658323,"true"
"image-keyboard-response",597,431038,"0.0-3.195-1.195","v74vp9f0nh38r0o",80,"30.csv","","null","resources/maskTrios/L1BB.jpg","null","",NA,NA,NA,NA,""
"image-keyboard-response",598,432244,"0.0-3.195-2.195","v74vp9f0nh38r0o",80,"30.csv","","null","resources/images/coin2.png","null","",NA,NA,NA,NA,""
"image-keyboard-response",599,432423,"0.0-3.196-0.196","v74vp9f0nh38r0o",80,"30.csv","","176.20000004768372","resources/trios/L2T4A1.jpg","37","restless",0.5,0.5,0.5,0.352866253579484,"true"
"image-keyboard-response",600,432827,"0.0-3.196-1.196","v74vp9f0nh38r0o",80,"30.csv","","null","resources/maskTrios/L2BB.jpg","null","",NA,NA,NA,NA,""
"image-keyboard-response",601,434042,"0.0-3.196-2.196","v74vp9f0nh38r0o",80,"30.csv","","null","resources/images/coin2.png","null","",NA,NA,NA,NA,""
"image-keyboard-response",602,434352,"0.0-3.197-0.197","v74vp9f0nh38r0o",80,"30.csv","","306.5","resources/trios/L1T2A1.jpg","39","restless",0.5,0.5,0.5,0.217492498660897,"true"
"image-keyboard-response",603,434767,"0.0-3.197-1.197","v74vp9f0nh38r0o",80,"30.csv","","null","resources/maskTrios/BBA1.jpg","null","",NA,NA,NA,NA,""
"image-keyboard-response",604,435973,"0.0-3.197-2.197","v74vp9f0nh38r0o",80,"30.csv","","null","resources/images/coin2.png","null","",NA,NA,NA,NA,""
"image-keyboard-response",605,436319,"0.0-3.198-0.198","v74vp9f0nh38r0o",80,"30.csv","","343.2999999523163","resources/trios/L1T2A1.jpg","39","restless",0.5,0.5,0.5,0.379010140499609,"true"
"image-keyboard-response",606,436726,"0.0-3.198-1.198","v74vp9f0nh38r0o",80,"30.csv","","null","resources/maskTrios/BBA1.jpg","null","",NA,NA,NA,NA,""
"image-keyboard-response",607,437932,"0.0-3.198-2.198","v74vp9f0nh38r0o",80,"30.csv","","null","resources/images/coin2.png","null","",NA,NA,NA,NA,""
"image-keyboard-response",608,437941,"0.0-3.199-0.199","v74vp9f0nh38r0o",80,"30.csv","","6.399999976158142","resources/trios/L2T2A1.jpg","37","restless",0.5,0.5,0.5,0.666041301968526,"false"
"image-keyboard-response",609,438357,"0.0-3.199-1.199","v74vp9f0nh38r0o",80,"30.csv","","null","resources/maskTrios/L2BB.jpg","null","",NA,NA,NA,NA,""
"image-keyboard-response",610,439575,"0.0-3.199-2.199","v74vp9f0nh38r0o",80,"30.csv","","null","resources/images/fishbone.png","null","",NA,NA,NA,NA,""
"image-keyboard-response",611,450321,"0.0-3.200-0.200","v74vp9f0nh38r0o",80,"30.csv","","10742.899999976158","resources/trios/L2T4A1.jpg","39","restless",0.5,0.5,0.5,0.472639697988472,"true"
"image-keyboard-response",612,450725,"0.0-3.200-1.200","v74vp9f0nh38r0o",80,"30.csv","","null","resources/maskTrios/BBA1.jpg","null","",NA,NA,NA,NA,""
"image-keyboard-response",613,451942,"0.0-3.200-2.200","v74vp9f0nh38r0o",80,"30.csv","","null","resources/images/coin2.png","null","",NA,NA,NA,NA,""
