"trial_type","trial_index","time_elapsed","internal_node_id","subject","participantCode","walkNumber","success","rt","stimulus","key_press","test_part","leftProb","midProb","rightProb","generatedNum","correct"
"pavlovia",0,1249,"0.0-0.0","p2c2yq7cu7k4t5s",465,"130.csv","","","","","",NA,NA,NA,NA,""
"fullscreen",1,5109,"0.0-1.0","p2c2yq7cu7k4t5s",465,"130.csv","true","","","","",NA,NA,NA,NA,""
"html-keyboard-response",2,25100,"0.0-2.0-0.0","p2c2yq7cu7k4t5s",465,"130.csv","","19989.5","<p><font size='6'>Arrrgh!</p></font><p>Can you be the best pirate? Try to find lots of gold! But beware, some islands have more gold than others, and over time, the island with the most gold may change. Can YOU figure it out? </p><font size='6'>GOOD LUCK, CAPTAIN!!!</font><p>Press any key to begin</p>","32","",NA,NA,NA,NA,""
"image-keyboard-response",3,28107,"0.0-2.0-1.0","p2c2yq7cu7k4t5s",465,"130.csv","","null","resources/image_sets/111.png","null","",NA,NA,NA,NA,""
"image-keyboard-response",4,35433,"0.0-2.0-2.0","p2c2yq7cu7k4t5s",465,"130.csv","","7325.4000000059605","resources/image_sets/left_highlight.png","37","",NA,NA,NA,NA,""
"image-keyboard-response",5,37908,"0.0-2.0-3.0","p2c2yq7cu7k4t5s",465,"130.csv","","2474","resources/image_sets/mid_highlight.png","38","",NA,NA,NA,NA,""
"image-keyboard-response",6,41207,"0.0-2.0-4.0","p2c2yq7cu7k4t5s",465,"130.csv","","3298","resources/image_sets/right_highlight.png","39","",NA,NA,NA,NA,""
"image-keyboard-response",7,57721,"0.0-2.0-5.0","p2c2yq7cu7k4t5s",465,"130.csv","","16512.600000023842","resources/image_sets/111.png","13","",NA,NA,NA,NA,""
"image-keyboard-response",8,60866,"0.0-2.0-6.0","p2c2yq7cu7k4t5s",465,"130.csv","","3144.4000000059605","resources/images/coin2.png","13","",NA,NA,NA,NA,""
"image-keyboard-response",9,63786,"0.0-2.0-7.0","p2c2yq7cu7k4t5s",465,"130.csv","","2919.100000023842","resources/images/fishbone.png","13","",NA,NA,NA,NA,""
"html-keyboard-response",10,69297,"0.0-2.0-8.0","p2c2yq7cu7k4t5s",465,"130.csv","","5509.9000000059605","<p>Your first journey will be a long one, but you will get a well deserved break at the end</p><p>After the break you will have four more journeys, but each will be much shorter than the first, and you will have breaks in between each</p><p>Press Enter to begin</p>","13","",NA,NA,NA,NA,""
"image-keyboard-response",11,71813,"0.0-3.0-0.0","p2c2yq7cu7k4t5s",465,"130.csv","","2514.7999999821186","resources/trios/L1T2A2.jpg","38","restless",0.7,0.3,0.9,0.891034184564117,"false"
"image-keyboard-response",12,72220,"0.0-3.0-1.0","p2c2yq7cu7k4t5s",465,"130.csv","","null","resources/maskTrios/BT2B.jpg","null","",NA,NA,NA,NA,""
"image-keyboard-response",13,73426,"0.0-3.0-2.0","p2c2yq7cu7k4t5s",465,"130.csv","","null","resources/images/fishbone.png","null","",NA,NA,NA,NA,""
"image-keyboard-response",14,74802,"0.0-3.1-0.1","p2c2yq7cu7k4t5s",465,"130.csv","","1374.9000000059605","resources/trios/L1T4A3.jpg","37","restless",0.6,0.2,0.9,0.1914915548142,"true"
"image-keyboard-response",15,75209,"0.0-3.1-1.1","p2c2yq7cu7k4t5s",465,"130.csv","","null","resources/maskTrios/L1BB.jpg","null","",NA,NA,NA,NA,""
"image-keyboard-response",16,76413,"0.0-3.1-2.1","p2c2yq7cu7k4t5s",465,"130.csv","","null","resources/images/coin2.png","null","",NA,NA,NA,NA,""
"image-keyboard-response",17,78085,"0.0-3.2-0.2","p2c2yq7cu7k4t5s",465,"130.csv","","1670.9000000059605","resources/trios/L1T4A3.jpg","38","restless",0.6,0.2,0.9,0.150879298952425,"true"
"image-keyboard-response",18,78491,"0.0-3.2-1.2","p2c2yq7cu7k4t5s",465,"130.csv","","null","resources/maskTrios/BT4B.jpg","null","",NA,NA,NA,NA,""
"image-keyboard-response",19,79698,"0.0-3.2-2.2","p2c2yq7cu7k4t5s",465,"130.csv","","null","resources/images/coin2.png","null","",NA,NA,NA,NA,""
"image-keyboard-response",20,82701,"0.0-3.3-0.3","p2c2yq7cu7k4t5s",465,"130.csv","","3001.9000000059605","resources/trios/L4T4A2.jpg","37","restless",0.7,0.2,0.9,0.982106712216555,"false"
"image-keyboard-response",21,83105,"0.0-3.3-1.3","p2c2yq7cu7k4t5s",465,"130.csv","","null","resources/maskTrios/L4BB.jpg","null","",NA,NA,NA,NA,""
"image-keyboard-response",22,84312,"0.0-3.3-2.3","p2c2yq7cu7k4t5s",465,"130.csv","","null","resources/images/fishbone.png","null","",NA,NA,NA,NA,""
"image-keyboard-response",23,86056,"0.0-3.4-0.4","p2c2yq7cu7k4t5s",465,"130.csv","","1743.1000000238419","resources/trios/L4T4A3.jpg","38","restless",0.7,0.1,0.8,0.925001480944754,"false"
"image-keyboard-response",24,86462,"0.0-3.4-1.4","p2c2yq7cu7k4t5s",465,"130.csv","","null","resources/maskTrios/BT4B.jpg","null","",NA,NA,NA,NA,""
"image-keyboard-response",25,87665,"0.0-3.4-2.4","p2c2yq7cu7k4t5s",465,"130.csv","","null","resources/images/fishbone.png","null","",NA,NA,NA,NA,""
"image-keyboard-response",26,89257,"0.0-3.5-0.5","p2c2yq7cu7k4t5s",465,"130.csv","","1590.5","resources/trios/L4T2A2.jpg","38","restless",0.7,0.1,0.8,0.58261451192967,"false"
"image-keyboard-response",27,89663,"0.0-3.5-1.5","p2c2yq7cu7k4t5s",465,"130.csv","","null","resources/maskTrios/BT2B.jpg","null","",NA,NA,NA,NA,""
"image-keyboard-response",28,90866,"0.0-3.5-2.5","p2c2yq7cu7k4t5s",465,"130.csv","","null","resources/images/fishbone.png","null","",NA,NA,NA,NA,""
"image-keyboard-response",29,92847,"0.0-3.6-0.6","p2c2yq7cu7k4t5s",465,"130.csv","","1980.2000000178814","resources/trios/L4T4A3.jpg","38","restless",0.7,0.1,0.8,0.577901814888483,"false"
"image-keyboard-response",30,93251,"0.0-3.6-1.6","p2c2yq7cu7k4t5s",465,"130.csv","","null","resources/maskTrios/BT4B.jpg","null","",NA,NA,NA,NA,""
"image-keyboard-response",31,94458,"0.0-3.6-2.6","p2c2yq7cu7k4t5s",465,"130.csv","","null","resources/images/fishbone.png","null","",NA,NA,NA,NA,""
"image-keyboard-response",32,95140,"0.0-3.7-0.7","p2c2yq7cu7k4t5s",465,"130.csv","","680.9000000059605","resources/trios/L4T4A3.jpg","37","restless",0.7,0.1,0.7,8.3247781366147e-05,"true"
"image-keyboard-response",33,95545,"0.0-3.7-1.7","p2c2yq7cu7k4t5s",465,"130.csv","","null","resources/maskTrios/L4BB.jpg","null","",NA,NA,NA,NA,""
"image-keyboard-response",34,96749,"0.0-3.7-2.7","p2c2yq7cu7k4t5s",465,"130.csv","","null","resources/images/coin2.png","null","",NA,NA,NA,NA,""
"image-keyboard-response",35,98436,"0.0-3.8-0.8","p2c2yq7cu7k4t5s",465,"130.csv","","1685.5","resources/trios/L1T2A3.jpg","39","restless",0.7,0.1,0.7,0.675239890365159,"true"
"image-keyboard-response",36,98841,"0.0-3.8-1.8","p2c2yq7cu7k4t5s",465,"130.csv","","null","resources/maskTrios/BBA3.jpg","null","",NA,NA,NA,NA,""
"image-keyboard-response",37,100048,"0.0-3.8-2.8","p2c2yq7cu7k4t5s",465,"130.csv","","null","resources/images/coin2.png","null","",NA,NA,NA,NA,""
"image-keyboard-response",38,102561,"0.0-3.9-0.9","p2c2yq7cu7k4t5s",465,"130.csv","","2512.2999999821186","resources/trios/L1T2A3.jpg","37","restless",0.7,0.1,0.7,0.848469304003248,"false"
"image-keyboard-response",39,102965,"0.0-3.9-1.9","p2c2yq7cu7k4t5s",465,"130.csv","","null","resources/maskTrios/L1BB.jpg","null","",NA,NA,NA,NA,""
"image-keyboard-response",40,104171,"0.0-3.9-2.9","p2c2yq7cu7k4t5s",465,"130.csv","","null","resources/images/fishbone.png","null","",NA,NA,NA,NA,""
"image-keyboard-response",41,105916,"0.0-3.10-0.10","p2c2yq7cu7k4t5s",465,"130.csv","","1743.6000000238419","resources/trios/L4T4A2.jpg","39","restless",0.7,0.1,0.7,0.750917790808211,"false"
"image-keyboard-response",42,106324,"0.0-3.10-1.10","p2c2yq7cu7k4t5s",465,"130.csv","","null","resources/maskTrios/BBA2.jpg","null","",NA,NA,NA,NA,""
"image-keyboard-response",43,107526,"0.0-3.10-2.10","p2c2yq7cu7k4t5s",465,"130.csv","","null","resources/images/fishbone.png","null","",NA,NA,NA,NA,""
"image-keyboard-response",44,108068,"0.0-3.11-0.11","p2c2yq7cu7k4t5s",465,"130.csv","","541.0999999940395","resources/trios/L4T2A2.jpg","38","restless",0.8,0.1,0.7,0.64682243670607,"false"
"image-keyboard-response",45,108474,"0.0-3.11-1.11","p2c2yq7cu7k4t5s",465,"130.csv","","null","resources/maskTrios/BT2B.jpg","null","",NA,NA,NA,NA,""
"image-keyboard-response",46,109676,"0.0-3.11-2.11","p2c2yq7cu7k4t5s",465,"130.csv","","null","resources/images/fishbone.png","null","",NA,NA,NA,NA,""
"image-keyboard-response",47,110045,"0.0-3.12-0.12","p2c2yq7cu7k4t5s",465,"130.csv","","367.40000000596046","resources/trios/L4T4A2.jpg","37","restless",0.8,0.1,0.7,0.462404991841953,"true"
"image-keyboard-response",48,110448,"0.0-3.12-1.12","p2c2yq7cu7k4t5s",465,"130.csv","","null","resources/maskTrios/L4BB.jpg","null","",NA,NA,NA,NA,""
"image-keyboard-response",49,111652,"0.0-3.12-2.12","p2c2yq7cu7k4t5s",465,"130.csv","","null","resources/images/coin2.png","null","",NA,NA,NA,NA,""
"image-keyboard-response",50,112509,"0.0-3.13-0.13","p2c2yq7cu7k4t5s",465,"130.csv","","855.8000000119209","resources/trios/L1T4A3.jpg","37","restless",0.8,0.1,0.7,0.918550701622324,"false"
"image-keyboard-response",51,112915,"0.0-3.13-1.13","p2c2yq7cu7k4t5s",465,"130.csv","","null","resources/maskTrios/L1BB.jpg","null","",NA,NA,NA,NA,""
"image-keyboard-response",52,114122,"0.0-3.13-2.13","p2c2yq7cu7k4t5s",465,"130.csv","","null","resources/images/fishbone.png","null","",NA,NA,NA,NA,""
"image-keyboard-response",53,114840,"0.0-3.14-0.14","p2c2yq7cu7k4t5s",465,"130.csv","","716.7000000178814","resources/trios/L4T2A3.jpg","39","restless",0.8,0.1,0.7,0.128667388217758,"true"
"image-keyboard-response",54,115246,"0.0-3.14-1.14","p2c2yq7cu7k4t5s",465,"130.csv","","null","resources/maskTrios/BBA3.jpg","null","",NA,NA,NA,NA,""
"image-keyboard-response",55,116451,"0.0-3.14-2.14","p2c2yq7cu7k4t5s",465,"130.csv","","null","resources/images/coin2.png","null","",NA,NA,NA,NA,""
"image-keyboard-response",56,117042,"0.0-3.15-0.15","p2c2yq7cu7k4t5s",465,"130.csv","","590.4000000059605","resources/trios/L1T2A3.jpg","39","restless",0.8,0.1,0.7,0.59534283186601,"true"
"image-keyboard-response",57,117448,"0.0-3.15-1.15","p2c2yq7cu7k4t5s",465,"130.csv","","null","resources/maskTrios/BBA3.jpg","null","",NA,NA,NA,NA,""
"image-keyboard-response",58,118654,"0.0-3.15-2.15","p2c2yq7cu7k4t5s",465,"130.csv","","null","resources/images/coin2.png","null","",NA,NA,NA,NA,""
"image-keyboard-response",59,119157,"0.0-3.16-0.16","p2c2yq7cu7k4t5s",465,"130.csv","","501.59999999403954","resources/trios/L4T4A3.jpg","37","restless",0.8,0.1,0.7,0.657497756358069,"true"
"image-keyboard-response",60,119564,"0.0-3.16-1.16","p2c2yq7cu7k4t5s",465,"130.csv","","null","resources/maskTrios/L4BB.jpg","null","",NA,NA,NA,NA,""
"image-keyboard-response",61,120771,"0.0-3.16-2.16","p2c2yq7cu7k4t5s",465,"130.csv","","null","resources/images/coin2.png","null","",NA,NA,NA,NA,""
"image-keyboard-response",62,121345,"0.0-3.17-0.17","p2c2yq7cu7k4t5s",465,"130.csv","","573","resources/trios/L1T2A3.jpg","37","restless",0.8,0.1,0.7,0.24054199525408,"true"
"image-keyboard-response",63,121751,"0.0-3.17-1.17","p2c2yq7cu7k4t5s",465,"130.csv","","null","resources/maskTrios/L1BB.jpg","null","",NA,NA,NA,NA,""
"image-keyboard-response",64,122957,"0.0-3.17-2.17","p2c2yq7cu7k4t5s",465,"130.csv","","null","resources/images/coin2.png","null","",NA,NA,NA,NA,""
"image-keyboard-response",65,123266,"0.0-3.18-0.18","p2c2yq7cu7k4t5s",465,"130.csv","","307.19999998807907","resources/trios/L1T2A3.jpg","39","restless",0.8,0.1,0.7,0.571957674159389,"true"
"image-keyboard-response",66,123671,"0.0-3.18-1.18","p2c2yq7cu7k4t5s",465,"130.csv","","null","resources/maskTrios/BBA3.jpg","null","",NA,NA,NA,NA,""
"image-keyboard-response",67,124873,"0.0-3.18-2.18","p2c2yq7cu7k4t5s",465,"130.csv","","null","resources/images/coin2.png","null","",NA,NA,NA,NA,""
"image-keyboard-response",68,125176,"0.0-3.19-0.19","p2c2yq7cu7k4t5s",465,"130.csv","","301.5","resources/trios/L4T2A2.jpg","39","restless",0.8,0.2,0.6,0.488750496686569,"true"
"image-keyboard-response",69,125580,"0.0-3.19-1.19","p2c2yq7cu7k4t5s",465,"130.csv","","null","resources/maskTrios/BBA2.jpg","null","",NA,NA,NA,NA,""
"image-keyboard-response",70,126784,"0.0-3.19-2.19","p2c2yq7cu7k4t5s",465,"130.csv","","null","resources/images/coin2.png","null","",NA,NA,NA,NA,""
"image-keyboard-response",71,127131,"0.0-3.20-0.20","p2c2yq7cu7k4t5s",465,"130.csv","","346.09999999403954","resources/trios/L1T2A2.jpg","37","restless",0.8,0.2,0.6,0.486359255079045,"true"
"image-keyboard-response",72,127537,"0.0-3.20-1.20","p2c2yq7cu7k4t5s",465,"130.csv","","null","resources/maskTrios/L1BB.jpg","null","",NA,NA,NA,NA,""
"image-keyboard-response",73,128739,"0.0-3.20-2.20","p2c2yq7cu7k4t5s",465,"130.csv","","null","resources/images/coin2.png","null","",NA,NA,NA,NA,""
"image-keyboard-response",74,129068,"0.0-3.21-0.21","p2c2yq7cu7k4t5s",465,"130.csv","","327.5","resources/trios/L1T2A3.jpg","37","restless",0.8,0.2,0.6,0.158592028488114,"true"
"image-keyboard-response",75,129470,"0.0-3.21-1.21","p2c2yq7cu7k4t5s",465,"130.csv","","null","resources/maskTrios/L1BB.jpg","null","",NA,NA,NA,NA,""
"image-keyboard-response",76,130677,"0.0-3.21-2.21","p2c2yq7cu7k4t5s",465,"130.csv","","null","resources/images/coin2.png","null","",NA,NA,NA,NA,""
"image-keyboard-response",77,130939,"0.0-3.22-0.22","p2c2yq7cu7k4t5s",465,"130.csv","","261.59999999403954","resources/trios/L4T4A2.jpg","39","restless",0.8,0.2,0.6,0.220463035314661,"true"
"image-keyboard-response",78,131345,"0.0-3.22-1.22","p2c2yq7cu7k4t5s",465,"130.csv","","null","resources/maskTrios/BBA2.jpg","null","",NA,NA,NA,NA,""
"image-keyboard-response",79,132551,"0.0-3.22-2.22","p2c2yq7cu7k4t5s",465,"130.csv","","null","resources/images/coin2.png","null","",NA,NA,NA,NA,""
"image-keyboard-response",80,132842,"0.0-3.23-0.23","p2c2yq7cu7k4t5s",465,"130.csv","","290","resources/trios/L1T2A3.jpg","39","restless",0.9,0.3,0.6,0.262107898859457,"true"
"image-keyboard-response",81,133248,"0.0-3.23-1.23","p2c2yq7cu7k4t5s",465,"130.csv","","null","resources/maskTrios/BBA3.jpg","null","",NA,NA,NA,NA,""
"image-keyboard-response",82,134455,"0.0-3.23-2.23","p2c2yq7cu7k4t5s",465,"130.csv","","null","resources/images/coin2.png","null","",NA,NA,NA,NA,""
"image-keyboard-response",83,134807,"0.0-3.24-0.24","p2c2yq7cu7k4t5s",465,"130.csv","","350.80000001192093","resources/trios/L4T2A2.jpg","37","restless",0.9,0.3,0.6,0.162411789831034,"true"
"image-keyboard-response",84,135210,"0.0-3.24-1.24","p2c2yq7cu7k4t5s",465,"130.csv","","null","resources/maskTrios/L4BB.jpg","null","",NA,NA,NA,NA,""
"image-keyboard-response",85,136417,"0.0-3.24-2.24","p2c2yq7cu7k4t5s",465,"130.csv","","null","resources/images/coin2.png","null","",NA,NA,NA,NA,""
"image-keyboard-response",86,136786,"0.0-3.25-0.25","p2c2yq7cu7k4t5s",465,"130.csv","","368.09999999403954","resources/trios/L1T2A3.jpg","37","restless",0.9,0.3,0.7,0.919040779264975,"false"
"image-keyboard-response",87,137189,"0.0-3.25-1.25","p2c2yq7cu7k4t5s",465,"130.csv","","null","resources/maskTrios/L1BB.jpg","null","",NA,NA,NA,NA,""
"image-keyboard-response",88,138391,"0.0-3.25-2.25","p2c2yq7cu7k4t5s",465,"130.csv","","null","resources/images/fishbone.png","null","",NA,NA,NA,NA,""
"image-keyboard-response",89,139515,"0.0-3.26-0.26","p2c2yq7cu7k4t5s",465,"130.csv","","1123.4000000059605","resources/trios/L4T4A2.jpg","39","restless",0.8,0.3,0.7,0.263159308613173,"true"
"image-keyboard-response",90,139920,"0.0-3.26-1.26","p2c2yq7cu7k4t5s",465,"130.csv","","null","resources/maskTrios/BBA2.jpg","null","",NA,NA,NA,NA,""
"image-keyboard-response",91,141122,"0.0-3.26-2.26","p2c2yq7cu7k4t5s",465,"130.csv","","null","resources/images/coin2.png","null","",NA,NA,NA,NA,""
"image-keyboard-response",92,141547,"0.0-3.27-0.27","p2c2yq7cu7k4t5s",465,"130.csv","","423.69999998807907","resources/trios/L4T4A3.jpg","39","restless",0.8,0.3,0.6,0.556070807485457,"true"
"image-keyboard-response",93,141952,"0.0-3.27-1.27","p2c2yq7cu7k4t5s",465,"130.csv","","null","resources/maskTrios/BBA3.jpg","null","",NA,NA,NA,NA,""
"image-keyboard-response",94,143158,"0.0-3.27-2.27","p2c2yq7cu7k4t5s",465,"130.csv","","null","resources/images/coin2.png","null","",NA,NA,NA,NA,""
"image-keyboard-response",95,143597,"0.0-3.28-0.28","p2c2yq7cu7k4t5s",465,"130.csv","","437.10000002384186","resources/trios/L1T4A2.jpg","37","restless",0.8,0.3,0.6,0.180383181155813,"true"
"image-keyboard-response",96,144003,"0.0-3.28-1.28","p2c2yq7cu7k4t5s",465,"130.csv","","null","resources/maskTrios/L1BB.jpg","null","",NA,NA,NA,NA,""
"image-keyboard-response",97,145205,"0.0-3.28-2.28","p2c2yq7cu7k4t5s",465,"130.csv","","null","resources/images/coin2.png","null","",NA,NA,NA,NA,""
"image-keyboard-response",98,145631,"0.0-3.29-0.29","p2c2yq7cu7k4t5s",465,"130.csv","","425.59999999403954","resources/trios/L1T2A2.jpg","37","restless",0.8,0.3,0.6,0.437225518907896,"true"
"image-keyboard-response",99,146038,"0.0-3.29-1.29","p2c2yq7cu7k4t5s",465,"130.csv","","null","resources/maskTrios/L1BB.jpg","null","",NA,NA,NA,NA,""
"image-keyboard-response",100,147246,"0.0-3.29-2.29","p2c2yq7cu7k4t5s",465,"130.csv","","null","resources/images/coin2.png","null","",NA,NA,NA,NA,""
"image-keyboard-response",101,147655,"0.0-3.30-0.30","p2c2yq7cu7k4t5s",465,"130.csv","","407","resources/trios/L4T4A2.jpg","39","restless",0.8,0.3,0.5,0.955167937460178,"false"
"image-keyboard-response",102,148061,"0.0-3.30-1.30","p2c2yq7cu7k4t5s",465,"130.csv","","null","resources/maskTrios/BBA2.jpg","null","",NA,NA,NA,NA,""
"image-keyboard-response",103,149262,"0.0-3.30-2.30","p2c2yq7cu7k4t5s",465,"130.csv","","null","resources/images/fishbone.png","null","",NA,NA,NA,NA,""
"image-keyboard-response",104,149727,"0.0-3.31-0.31","p2c2yq7cu7k4t5s",465,"130.csv","","463.19999998807907","resources/trios/L1T2A3.jpg","39","restless",0.8,0.3,0.5,0.392320817653652,"true"
"image-keyboard-response",105,150130,"0.0-3.31-1.31","p2c2yq7cu7k4t5s",465,"130.csv","","null","resources/maskTrios/BBA3.jpg","null","",NA,NA,NA,NA,""
"image-keyboard-response",106,151337,"0.0-3.31-2.31","p2c2yq7cu7k4t5s",465,"130.csv","","null","resources/images/coin2.png","null","",NA,NA,NA,NA,""
"image-keyboard-response",107,152062,"0.0-3.32-0.32","p2c2yq7cu7k4t5s",465,"130.csv","","724.2000000178814","resources/trios/L1T4A2.jpg","39","restless",0.8,0.4,0.5,0.491924928946171,"true"
"image-keyboard-response",108,152469,"0.0-3.32-1.32","p2c2yq7cu7k4t5s",465,"130.csv","","null","resources/maskTrios/BBA2.jpg","null","",NA,NA,NA,NA,""
"image-keyboard-response",109,153675,"0.0-3.32-2.32","p2c2yq7cu7k4t5s",465,"130.csv","","null","resources/images/coin2.png","null","",NA,NA,NA,NA,""
"image-keyboard-response",110,154308,"0.0-3.33-0.33","p2c2yq7cu7k4t5s",465,"130.csv","","631.0999999940395","resources/trios/L4T4A2.jpg","37","restless",0.7,0.4,0.5,0.448540797238708,"true"
"image-keyboard-response",111,154714,"0.0-3.33-1.33","p2c2yq7cu7k4t5s",465,"130.csv","","null","resources/maskTrios/L4BB.jpg","null","",NA,NA,NA,NA,""
"image-keyboard-response",112,155921,"0.0-3.33-2.33","p2c2yq7cu7k4t5s",465,"130.csv","","null","resources/images/coin2.png","null","",NA,NA,NA,NA,""
"image-keyboard-response",113,156434,"0.0-3.34-0.34","p2c2yq7cu7k4t5s",465,"130.csv","","511.90000000596046","resources/trios/L1T4A2.jpg","37","restless",0.7,0.4,0.5,0.728774276577505,"false"
"image-keyboard-response",114,156841,"0.0-3.34-1.34","p2c2yq7cu7k4t5s",465,"130.csv","","null","resources/maskTrios/L1BB.jpg","null","",NA,NA,NA,NA,""
"image-keyboard-response",115,158047,"0.0-3.34-2.34","p2c2yq7cu7k4t5s",465,"130.csv","","null","resources/images/fishbone.png","null","",NA,NA,NA,NA,""
"image-keyboard-response",116,158465,"0.0-3.35-0.35","p2c2yq7cu7k4t5s",465,"130.csv","","417.09999999403954","resources/trios/L4T2A3.jpg","39","restless",0.7,0.4,0.5,0.0558724700618525,"true"
"image-keyboard-response",117,158867,"0.0-3.35-1.35","p2c2yq7cu7k4t5s",465,"130.csv","","null","resources/maskTrios/BBA3.jpg","null","",NA,NA,NA,NA,""
"image-keyboard-response",118,160071,"0.0-3.35-2.35","p2c2yq7cu7k4t5s",465,"130.csv","","null","resources/images/coin2.png","null","",NA,NA,NA,NA,""
"image-keyboard-response",119,160468,"0.0-3.36-0.36","p2c2yq7cu7k4t5s",465,"130.csv","","396.40000000596046","resources/trios/L4T2A3.jpg","39","restless",0.7,0.4,0.5,0.961620620766701,"false"
"image-keyboard-response",120,160875,"0.0-3.36-1.36","p2c2yq7cu7k4t5s",465,"130.csv","","null","resources/maskTrios/BBA3.jpg","null","",NA,NA,NA,NA,""
"image-keyboard-response",121,162081,"0.0-3.36-2.36","p2c2yq7cu7k4t5s",465,"130.csv","","null","resources/images/fishbone.png","null","",NA,NA,NA,NA,""
"image-keyboard-response",122,163129,"0.0-3.37-0.37","p2c2yq7cu7k4t5s",465,"130.csv","","1047","resources/trios/L4T4A3.jpg","37","restless",0.7,0.4,0.5,0.228824139288607,"true"
"image-keyboard-response",123,163536,"0.0-3.37-1.37","p2c2yq7cu7k4t5s",465,"130.csv","","null","resources/maskTrios/L4BB.jpg","null","",NA,NA,NA,NA,""
"image-keyboard-response",124,164743,"0.0-3.37-2.37","p2c2yq7cu7k4t5s",465,"130.csv","","null","resources/images/coin2.png","null","",NA,NA,NA,NA,""
"image-keyboard-response",125,165241,"0.0-3.38-0.38","p2c2yq7cu7k4t5s",465,"130.csv","","497.2000000178814","resources/trios/L4T4A2.jpg","37","restless",0.7,0.4,0.5,0.647689397196279,"true"
"image-keyboard-response",126,165647,"0.0-3.38-1.38","p2c2yq7cu7k4t5s",465,"130.csv","","null","resources/maskTrios/L4BB.jpg","null","",NA,NA,NA,NA,""
"image-keyboard-response",127,166854,"0.0-3.38-2.38","p2c2yq7cu7k4t5s",465,"130.csv","","null","resources/images/coin2.png","null","",NA,NA,NA,NA,""
"image-keyboard-response",128,167868,"0.0-3.39-0.39","p2c2yq7cu7k4t5s",465,"130.csv","","1012.5999999940395","resources/trios/L1T4A2.jpg","39","restless",0.7,0.4,0.6,0.572811039910204,"true"
"image-keyboard-response",129,168272,"0.0-3.39-1.39","p2c2yq7cu7k4t5s",465,"130.csv","","null","resources/maskTrios/BBA2.jpg","null","",NA,NA,NA,NA,""
"image-keyboard-response",130,169476,"0.0-3.39-2.39","p2c2yq7cu7k4t5s",465,"130.csv","","null","resources/images/coin2.png","null","",NA,NA,NA,NA,""
"image-keyboard-response",131,169951,"0.0-3.40-0.40","p2c2yq7cu7k4t5s",465,"130.csv","","473.59999999403954","resources/trios/L4T4A3.jpg","39","restless",0.7,0.4,0.6,0.176354107116752,"true"
"image-keyboard-response",132,170357,"0.0-3.40-1.40","p2c2yq7cu7k4t5s",465,"130.csv","","null","resources/maskTrios/BBA3.jpg","null","",NA,NA,NA,NA,""
"image-keyboard-response",133,171561,"0.0-3.40-2.40","p2c2yq7cu7k4t5s",465,"130.csv","","null","resources/images/coin2.png","null","",NA,NA,NA,NA,""
"image-keyboard-response",134,172137,"0.0-3.41-0.41","p2c2yq7cu7k4t5s",465,"130.csv","","575","resources/trios/L4T2A2.jpg","37","restless",0.7,0.4,0.6,0.614787824638191,"true"
"image-keyboard-response",135,172539,"0.0-3.41-1.41","p2c2yq7cu7k4t5s",465,"130.csv","","null","resources/maskTrios/L4BB.jpg","null","",NA,NA,NA,NA,""
"image-keyboard-response",136,173745,"0.0-3.41-2.41","p2c2yq7cu7k4t5s",465,"130.csv","","null","resources/images/coin2.png","null","",NA,NA,NA,NA,""
"image-keyboard-response",137,174081,"0.0-3.42-0.42","p2c2yq7cu7k4t5s",465,"130.csv","","334.5","resources/trios/L1T4A3.jpg","37","restless",0.7,0.4,0.6,0.0458025739543326,"true"
"image-keyboard-response",138,174483,"0.0-3.42-1.42","p2c2yq7cu7k4t5s",465,"130.csv","","null","resources/maskTrios/L1BB.jpg","null","",NA,NA,NA,NA,""
"image-keyboard-response",139,175686,"0.0-3.42-2.42","p2c2yq7cu7k4t5s",465,"130.csv","","null","resources/images/coin2.png","null","",NA,NA,NA,NA,""
"image-keyboard-response",140,176038,"0.0-3.43-0.43","p2c2yq7cu7k4t5s",465,"130.csv","","350.7000000178814","resources/trios/L4T4A3.jpg","39","restless",0.7,0.4,0.6,0.495990840769541,"true"
"image-keyboard-response",141,176440,"0.0-3.43-1.43","p2c2yq7cu7k4t5s",465,"130.csv","","null","resources/maskTrios/BBA3.jpg","null","",NA,NA,NA,NA,""
"image-keyboard-response",142,177647,"0.0-3.43-2.43","p2c2yq7cu7k4t5s",465,"130.csv","","null","resources/images/coin2.png","null","",NA,NA,NA,NA,""
"image-keyboard-response",143,178064,"0.0-3.44-0.44","p2c2yq7cu7k4t5s",465,"130.csv","","415.60000002384186","resources/trios/L4T4A2.jpg","39","restless",0.7,0.4,0.6,0.453111640182817,"true"
"image-keyboard-response",144,178466,"0.0-3.44-1.44","p2c2yq7cu7k4t5s",465,"130.csv","","null","resources/maskTrios/BBA2.jpg","null","",NA,NA,NA,NA,""
"image-keyboard-response",145,179672,"0.0-3.44-2.44","p2c2yq7cu7k4t5s",465,"130.csv","","null","resources/images/coin2.png","null","",NA,NA,NA,NA,""
"image-keyboard-response",146,180070,"0.0-3.45-0.45","p2c2yq7cu7k4t5s",465,"130.csv","","397","resources/trios/L4T2A3.jpg","37","restless",0.7,0.4,0.6,0.500282341513517,"true"
"image-keyboard-response",147,180477,"0.0-3.45-1.45","p2c2yq7cu7k4t5s",465,"130.csv","","null","resources/maskTrios/L4BB.jpg","null","",NA,NA,NA,NA,""
"image-keyboard-response",148,181683,"0.0-3.45-2.45","p2c2yq7cu7k4t5s",465,"130.csv","","null","resources/images/coin2.png","null","",NA,NA,NA,NA,""
"image-keyboard-response",149,182005,"0.0-3.46-0.46","p2c2yq7cu7k4t5s",465,"130.csv","","319.90000000596046","resources/trios/L1T2A2.jpg","37","restless",0.7,0.4,0.6,0.781134306324512,"false"
"image-keyboard-response",150,182411,"0.0-3.46-1.46","p2c2yq7cu7k4t5s",465,"130.csv","","null","resources/maskTrios/L1BB.jpg","null","",NA,NA,NA,NA,""
"image-keyboard-response",151,183618,"0.0-3.46-2.46","p2c2yq7cu7k4t5s",465,"130.csv","","null","resources/images/fishbone.png","null","",NA,NA,NA,NA,""
"image-keyboard-response",152,185900,"0.0-3.47-0.47","p2c2yq7cu7k4t5s",465,"130.csv","","2281.199999988079","resources/trios/L4T4A2.jpg","37","restless",0.7,0.4,0.6,0.358278443533427,"true"
"image-keyboard-response",153,186302,"0.0-3.47-1.47","p2c2yq7cu7k4t5s",465,"130.csv","","null","resources/maskTrios/L4BB.jpg","null","",NA,NA,NA,NA,""
"image-keyboard-response",154,187508,"0.0-3.47-2.47","p2c2yq7cu7k4t5s",465,"130.csv","","null","resources/images/coin2.png","null","",NA,NA,NA,NA,""
"image-keyboard-response",155,188081,"0.0-3.48-0.48","p2c2yq7cu7k4t5s",465,"130.csv","","572.1999999880791","resources/trios/L1T4A3.jpg","37","restless",0.7,0.4,0.6,0.567694020884558,"true"
"image-keyboard-response",156,188488,"0.0-3.48-1.48","p2c2yq7cu7k4t5s",465,"130.csv","","null","resources/maskTrios/L1BB.jpg","null","",NA,NA,NA,NA,""
"image-keyboard-response",157,189692,"0.0-3.48-2.48","p2c2yq7cu7k4t5s",465,"130.csv","","null","resources/images/coin2.png","null","",NA,NA,NA,NA,""
"image-keyboard-response",158,190116,"0.0-3.49-0.49","p2c2yq7cu7k4t5s",465,"130.csv","","423","resources/trios/L4T4A3.jpg","39","restless",0.7,0.4,0.6,0.0563199880526086,"true"
"image-keyboard-response",159,190523,"0.0-3.49-1.49","p2c2yq7cu7k4t5s",465,"130.csv","","null","resources/maskTrios/BBA3.jpg","null","",NA,NA,NA,NA,""
"image-keyboard-response",160,191729,"0.0-3.49-2.49","p2c2yq7cu7k4t5s",465,"130.csv","","null","resources/images/coin2.png","null","",NA,NA,NA,NA,""
"image-keyboard-response",161,192189,"0.0-3.50-0.50","p2c2yq7cu7k4t5s",465,"130.csv","","459.30000001192093","resources/trios/L4T2A2.jpg","39","restless",0.7,0.5,0.6,0.953828376687242,"false"
"image-keyboard-response",162,192596,"0.0-3.50-1.50","p2c2yq7cu7k4t5s",465,"130.csv","","null","resources/maskTrios/BBA2.jpg","null","",NA,NA,NA,NA,""
"image-keyboard-response",163,193797,"0.0-3.50-2.50","p2c2yq7cu7k4t5s",465,"130.csv","","null","resources/images/fishbone.png","null","",NA,NA,NA,NA,""
"image-keyboard-response",164,194556,"0.0-3.51-0.51","p2c2yq7cu7k4t5s",465,"130.csv","","758","resources/trios/L1T4A3.jpg","39","restless",0.8,0.5,0.6,0.591115252890267,"true"
"image-keyboard-response",165,194961,"0.0-3.51-1.51","p2c2yq7cu7k4t5s",465,"130.csv","","null","resources/maskTrios/BBA3.jpg","null","",NA,NA,NA,NA,""
"image-keyboard-response",166,196167,"0.0-3.51-2.51","p2c2yq7cu7k4t5s",465,"130.csv","","null","resources/images/coin2.png","null","",NA,NA,NA,NA,""
"image-keyboard-response",167,196544,"0.0-3.52-0.52","p2c2yq7cu7k4t5s",465,"130.csv","","375.69999998807907","resources/trios/L4T4A2.jpg","39","restless",0.8,0.5,0.6,0.415501908725802,"true"
"image-keyboard-response",168,196948,"0.0-3.52-1.52","p2c2yq7cu7k4t5s",465,"130.csv","","null","resources/maskTrios/BBA2.jpg","null","",NA,NA,NA,NA,""
"image-keyboard-response",169,198150,"0.0-3.52-2.52","p2c2yq7cu7k4t5s",465,"130.csv","","null","resources/images/coin2.png","null","",NA,NA,NA,NA,""
"image-keyboard-response",170,198513,"0.0-3.53-0.53","p2c2yq7cu7k4t5s",465,"130.csv","","360.7999999821186","resources/trios/L4T2A2.jpg","37","restless",0.8,0.5,0.7,0.455465398564087,"true"
"image-keyboard-response",171,198919,"0.0-3.53-1.53","p2c2yq7cu7k4t5s",465,"130.csv","","null","resources/maskTrios/L4BB.jpg","null","",NA,NA,NA,NA,""
"image-keyboard-response",172,200126,"0.0-3.53-2.53","p2c2yq7cu7k4t5s",465,"130.csv","","null","resources/images/coin2.png","null","",NA,NA,NA,NA,""
"image-keyboard-response",173,200533,"0.0-3.54-0.54","p2c2yq7cu7k4t5s",465,"130.csv","","405.7999999821186","resources/trios/L1T2A3.jpg","37","restless",0.8,0.5,0.7,0.275694744347947,"true"
"image-keyboard-response",174,200939,"0.0-3.54-1.54","p2c2yq7cu7k4t5s",465,"130.csv","","null","resources/maskTrios/L1BB.jpg","null","",NA,NA,NA,NA,""
"image-keyboard-response",175,202143,"0.0-3.54-2.54","p2c2yq7cu7k4t5s",465,"130.csv","","null","resources/images/coin2.png","null","",NA,NA,NA,NA,""
"image-keyboard-response",176,202429,"0.0-3.55-0.55","p2c2yq7cu7k4t5s",465,"130.csv","","284.80000001192093","resources/trios/L4T4A3.jpg","39","restless",0.8,0.5,0.7,0.745681185710013,"false"
"image-keyboard-response",177,202835,"0.0-3.55-1.55","p2c2yq7cu7k4t5s",465,"130.csv","","null","resources/maskTrios/BBA3.jpg","null","",NA,NA,NA,NA,""
"image-keyboard-response",178,204040,"0.0-3.55-2.55","p2c2yq7cu7k4t5s",465,"130.csv","","null","resources/images/fishbone.png","null","",NA,NA,NA,NA,""
"image-keyboard-response",179,204441,"0.0-3.56-0.56","p2c2yq7cu7k4t5s",465,"130.csv","","399.69999998807907","resources/trios/L1T4A2.jpg","39","restless",0.8,0.5,0.7,0.795025949018829,"false"
"image-keyboard-response",180,204843,"0.0-3.56-1.56","p2c2yq7cu7k4t5s",465,"130.csv","","null","resources/maskTrios/BBA2.jpg","null","",NA,NA,NA,NA,""
"image-keyboard-response",181,206049,"0.0-3.56-2.56","p2c2yq7cu7k4t5s",465,"130.csv","","null","resources/images/fishbone.png","null","",NA,NA,NA,NA,""
"image-keyboard-response",182,207418,"0.0-3.57-0.57","p2c2yq7cu7k4t5s",465,"130.csv","","1368.7000000178814","resources/trios/L1T2A3.jpg","39","restless",0.8,0.5,0.7,0.0142586029640581,"true"
"image-keyboard-response",183,207821,"0.0-3.57-1.57","p2c2yq7cu7k4t5s",465,"130.csv","","null","resources/maskTrios/BBA3.jpg","null","",NA,NA,NA,NA,""
"image-keyboard-response",184,209028,"0.0-3.57-2.57","p2c2yq7cu7k4t5s",465,"130.csv","","null","resources/images/coin2.png","null","",NA,NA,NA,NA,""
"image-keyboard-response",185,209366,"0.0-3.58-0.58","p2c2yq7cu7k4t5s",465,"130.csv","","336.40000000596046","resources/trios/L4T2A2.jpg","39","restless",0.8,0.5,0.7,0.703727253296125,"false"
"image-keyboard-response",186,209773,"0.0-3.58-1.58","p2c2yq7cu7k4t5s",465,"130.csv","","null","resources/maskTrios/BBA2.jpg","null","",NA,NA,NA,NA,""
"image-keyboard-response",187,210979,"0.0-3.58-2.58","p2c2yq7cu7k4t5s",465,"130.csv","","null","resources/images/fishbone.png","null","",NA,NA,NA,NA,""
"image-keyboard-response",188,211305,"0.0-3.59-0.59","p2c2yq7cu7k4t5s",465,"130.csv","","324.40000000596046","resources/trios/L4T4A2.jpg","37","restless",0.8,0.5,0.8,0.258641255174949,"true"
"image-keyboard-response",189,211712,"0.0-3.59-1.59","p2c2yq7cu7k4t5s",465,"130.csv","","null","resources/maskTrios/L4BB.jpg","null","",NA,NA,NA,NA,""
"image-keyboard-response",190,212918,"0.0-3.59-2.59","p2c2yq7cu7k4t5s",465,"130.csv","","null","resources/images/coin2.png","null","",NA,NA,NA,NA,""
"image-keyboard-response",191,213229,"0.0-3.60-0.60","p2c2yq7cu7k4t5s",465,"130.csv","","309.5","resources/trios/L1T4A2.jpg","37","restless",0.8,0.5,0.8,0.632737346003099,"true"
"image-keyboard-response",192,213630,"0.0-3.60-1.60","p2c2yq7cu7k4t5s",465,"130.csv","","null","resources/maskTrios/L1BB.jpg","null","",NA,NA,NA,NA,""
"image-keyboard-response",193,214837,"0.0-3.60-2.60","p2c2yq7cu7k4t5s",465,"130.csv","","null","resources/images/coin2.png","null","",NA,NA,NA,NA,""
"image-keyboard-response",194,215143,"0.0-3.61-0.61","p2c2yq7cu7k4t5s",465,"130.csv","","304.59999999403954","resources/trios/L4T4A2.jpg","39","restless",0.8,0.4,0.8,0.543477506470725,"true"
"image-keyboard-response",195,215549,"0.0-3.61-1.61","p2c2yq7cu7k4t5s",465,"130.csv","","null","resources/maskTrios/BBA2.jpg","null","",NA,NA,NA,NA,""
"image-keyboard-response",196,216754,"0.0-3.61-2.61","p2c2yq7cu7k4t5s",465,"130.csv","","null","resources/images/coin2.png","null","",NA,NA,NA,NA,""
"image-keyboard-response",197,217072,"0.0-3.62-0.62","p2c2yq7cu7k4t5s",465,"130.csv","","316.90000000596046","resources/trios/L1T2A2.jpg","39","restless",0.8,0.5,0.8,0.323622814581531,"true"
"image-keyboard-response",198,217475,"0.0-3.62-1.62","p2c2yq7cu7k4t5s",465,"130.csv","","null","resources/maskTrios/BBA2.jpg","null","",NA,NA,NA,NA,""
"image-keyboard-response",199,218678,"0.0-3.62-2.62","p2c2yq7cu7k4t5s",465,"130.csv","","null","resources/images/coin2.png","null","",NA,NA,NA,NA,""
"image-keyboard-response",200,219072,"0.0-3.63-0.63","p2c2yq7cu7k4t5s",465,"130.csv","","392.40000000596046","resources/trios/L1T4A2.jpg","37","restless",0.8,0.5,0.7,0.12822187847354,"true"
"image-keyboard-response",201,219477,"0.0-3.63-1.63","p2c2yq7cu7k4t5s",465,"130.csv","","null","resources/maskTrios/L1BB.jpg","null","",NA,NA,NA,NA,""
"image-keyboard-response",202,220681,"0.0-3.63-2.63","p2c2yq7cu7k4t5s",465,"130.csv","","null","resources/images/coin2.png","null","",NA,NA,NA,NA,""
"image-keyboard-response",203,221051,"0.0-3.64-0.64","p2c2yq7cu7k4t5s",465,"130.csv","","368.90000000596046","resources/trios/L4T2A3.jpg","37","restless",0.8,0.5,0.6,0.198192781863077,"true"
"image-keyboard-response",204,221456,"0.0-3.64-1.64","p2c2yq7cu7k4t5s",465,"130.csv","","null","resources/maskTrios/L4BB.jpg","null","",NA,NA,NA,NA,""
"image-keyboard-response",205,222663,"0.0-3.64-2.64","p2c2yq7cu7k4t5s",465,"130.csv","","null","resources/images/coin2.png","null","",NA,NA,NA,NA,""
"image-keyboard-response",206,222986,"0.0-3.65-0.65","p2c2yq7cu7k4t5s",465,"130.csv","","321.5","resources/trios/L4T4A3.jpg","39","restless",0.8,0.5,0.6,0.281192865540868,"true"
"image-keyboard-response",207,223393,"0.0-3.65-1.65","p2c2yq7cu7k4t5s",465,"130.csv","","null","resources/maskTrios/BBA3.jpg","null","",NA,NA,NA,NA,""
"image-keyboard-response",208,224599,"0.0-3.65-2.65","p2c2yq7cu7k4t5s",465,"130.csv","","null","resources/images/coin2.png","null","",NA,NA,NA,NA,""
"image-keyboard-response",209,225102,"0.0-3.66-0.66","p2c2yq7cu7k4t5s",465,"130.csv","","501.09999999403954","resources/trios/L1T2A2.jpg","39","restless",0.8,0.5,0.6,0.340977338436479,"true"
"image-keyboard-response",210,225504,"0.0-3.66-1.66","p2c2yq7cu7k4t5s",465,"130.csv","","null","resources/maskTrios/BBA2.jpg","null","",NA,NA,NA,NA,""
"image-keyboard-response",211,226711,"0.0-3.66-2.66","p2c2yq7cu7k4t5s",465,"130.csv","","null","resources/images/coin2.png","null","",NA,NA,NA,NA,""
"image-keyboard-response",212,227097,"0.0-3.67-0.67","p2c2yq7cu7k4t5s",465,"130.csv","","385.5","resources/trios/L1T4A2.jpg","37","restless",0.8,0.5,0.6,0.0833550964872665,"true"
"image-keyboard-response",213,227504,"0.0-3.67-1.67","p2c2yq7cu7k4t5s",465,"130.csv","","null","resources/maskTrios/L1BB.jpg","null","",NA,NA,NA,NA,""
"image-keyboard-response",214,228710,"0.0-3.67-2.67","p2c2yq7cu7k4t5s",465,"130.csv","","null","resources/images/coin2.png","null","",NA,NA,NA,NA,""
"image-keyboard-response",215,229044,"0.0-3.68-0.68","p2c2yq7cu7k4t5s",465,"130.csv","","333","resources/trios/L1T2A3.jpg","37","restless",0.8,0.5,0.6,0.36625973765402,"true"
"image-keyboard-response",216,229449,"0.0-3.68-1.68","p2c2yq7cu7k4t5s",465,"130.csv","","null","resources/maskTrios/L1BB.jpg","null","",NA,NA,NA,NA,""
"image-keyboard-response",217,230656,"0.0-3.68-2.68","p2c2yq7cu7k4t5s",465,"130.csv","","null","resources/images/coin2.png","null","",NA,NA,NA,NA,""
"image-keyboard-response",218,230944,"0.0-3.69-0.69","p2c2yq7cu7k4t5s",465,"130.csv","","287.60000002384186","resources/trios/L1T2A3.jpg","39","restless",0.8,0.5,0.5,0.116123357560281,"true"
"image-keyboard-response",219,231349,"0.0-3.69-1.69","p2c2yq7cu7k4t5s",465,"130.csv","","null","resources/maskTrios/BBA3.jpg","null","",NA,NA,NA,NA,""
"image-keyboard-response",220,232555,"0.0-3.69-2.69","p2c2yq7cu7k4t5s",465,"130.csv","","null","resources/images/coin2.png","null","",NA,NA,NA,NA,""
"image-keyboard-response",221,232853,"0.0-3.70-0.70","p2c2yq7cu7k4t5s",465,"130.csv","","296.40000000596046","resources/trios/L4T4A2.jpg","39","restless",0.8,0.5,0.5,0.0790764054852198,"true"
"image-keyboard-response",222,233259,"0.0-3.70-1.70","p2c2yq7cu7k4t5s",465,"130.csv","","null","resources/maskTrios/BBA2.jpg","null","",NA,NA,NA,NA,""
"image-keyboard-response",223,234466,"0.0-3.70-2.70","p2c2yq7cu7k4t5s",465,"130.csv","","null","resources/images/coin2.png","null","",NA,NA,NA,NA,""
"image-keyboard-response",224,234891,"0.0-3.71-0.71","p2c2yq7cu7k4t5s",465,"130.csv","","423.39999997615814","resources/trios/L1T4A3.jpg","37","restless",0.7,0.5,0.5,0.920509542624439,"false"
"image-keyboard-response",225,235297,"0.0-3.71-1.71","p2c2yq7cu7k4t5s",465,"130.csv","","null","resources/maskTrios/L1BB.jpg","null","",NA,NA,NA,NA,""
"image-keyboard-response",226,236504,"0.0-3.71-2.71","p2c2yq7cu7k4t5s",465,"130.csv","","null","resources/images/fishbone.png","null","",NA,NA,NA,NA,""
"image-keyboard-response",227,236866,"0.0-3.72-0.72","p2c2yq7cu7k4t5s",465,"130.csv","","360.59999999403954","resources/trios/L4T2A2.jpg","37","restless",0.7,0.5,0.5,0.419499187234626,"true"
"image-keyboard-response",228,237268,"0.0-3.72-1.72","p2c2yq7cu7k4t5s",465,"130.csv","","null","resources/maskTrios/L4BB.jpg","null","",NA,NA,NA,NA,""
"image-keyboard-response",229,238475,"0.0-3.72-2.72","p2c2yq7cu7k4t5s",465,"130.csv","","null","resources/images/coin2.png","null","",NA,NA,NA,NA,""
"image-keyboard-response",230,238932,"0.0-3.73-0.73","p2c2yq7cu7k4t5s",465,"130.csv","","456.2000000178814","resources/trios/L1T4A2.jpg","37","restless",0.7,0.5,0.5,0.220901156921016,"true"
"image-keyboard-response",231,239339,"0.0-3.73-1.73","p2c2yq7cu7k4t5s",465,"130.csv","","null","resources/maskTrios/L1BB.jpg","null","",NA,NA,NA,NA,""
"image-keyboard-response",232,240540,"0.0-3.73-2.73","p2c2yq7cu7k4t5s",465,"130.csv","","null","resources/images/coin2.png","null","",NA,NA,NA,NA,""
"image-keyboard-response",233,240965,"0.0-3.74-0.74","p2c2yq7cu7k4t5s",465,"130.csv","","423.7000000178814","resources/trios/L1T2A2.jpg","39","restless",0.7,0.5,0.5,0.336033733249214,"true"
"image-keyboard-response",234,241370,"0.0-3.74-1.74","p2c2yq7cu7k4t5s",465,"130.csv","","null","resources/maskTrios/BBA2.jpg","null","",NA,NA,NA,NA,""
"image-keyboard-response",235,242575,"0.0-3.74-2.74","p2c2yq7cu7k4t5s",465,"130.csv","","null","resources/images/coin2.png","null","",NA,NA,NA,NA,""
"image-keyboard-response",236,243014,"0.0-3.75-0.75","p2c2yq7cu7k4t5s",465,"130.csv","","437.19999998807907","resources/trios/L1T4A2.jpg","39","restless",0.6,0.5,0.4,0.641747424628121,"false"
"image-keyboard-response",237,243420,"0.0-3.75-1.75","p2c2yq7cu7k4t5s",465,"130.csv","","null","resources/maskTrios/BBA2.jpg","null","",NA,NA,NA,NA,""
"image-keyboard-response",238,244625,"0.0-3.75-2.75","p2c2yq7cu7k4t5s",465,"130.csv","","null","resources/images/fishbone.png","null","",NA,NA,NA,NA,""
"image-keyboard-response",239,245117,"0.0-3.76-0.76","p2c2yq7cu7k4t5s",465,"130.csv","","490.2999999821186","resources/trios/L4T2A3.jpg","39","restless",0.6,0.5,0.4,0.498201054906997,"false"
"image-keyboard-response",240,245523,"0.0-3.76-1.76","p2c2yq7cu7k4t5s",465,"130.csv","","null","resources/maskTrios/BBA3.jpg","null","",NA,NA,NA,NA,""
"image-keyboard-response",241,246729,"0.0-3.76-2.76","p2c2yq7cu7k4t5s",465,"130.csv","","null","resources/images/fishbone.png","null","",NA,NA,NA,NA,""
"image-keyboard-response",242,247853,"0.0-3.77-0.77","p2c2yq7cu7k4t5s",465,"130.csv","","1122.5","resources/trios/L1T2A2.jpg","39","restless",0.6,0.6,0.5,0.87529977875953,"false"
"image-keyboard-response",243,248259,"0.0-3.77-1.77","p2c2yq7cu7k4t5s",465,"130.csv","","null","resources/maskTrios/BBA2.jpg","null","",NA,NA,NA,NA,""
"image-keyboard-response",244,249466,"0.0-3.77-2.77","p2c2yq7cu7k4t5s",465,"130.csv","","null","resources/images/fishbone.png","null","",NA,NA,NA,NA,""
"image-keyboard-response",245,249886,"0.0-3.78-0.78","p2c2yq7cu7k4t5s",465,"130.csv","","419.09999999403954","resources/trios/L1T2A3.jpg","37","restless",0.6,0.6,0.5,0.00739537545075653,"true"
"image-keyboard-response",246,250288,"0.0-3.78-1.78","p2c2yq7cu7k4t5s",465,"130.csv","","null","resources/maskTrios/L1BB.jpg","null","",NA,NA,NA,NA,""
"image-keyboard-response",247,251493,"0.0-3.78-2.78","p2c2yq7cu7k4t5s",465,"130.csv","","null","resources/images/coin2.png","null","",NA,NA,NA,NA,""
"image-keyboard-response",248,251873,"0.0-3.79-0.79","p2c2yq7cu7k4t5s",465,"130.csv","","378.40000000596046","resources/trios/L1T2A2.jpg","37","restless",0.6,0.6,0.5,0.0453917050902257,"true"
"image-keyboard-response",249,252277,"0.0-3.79-1.79","p2c2yq7cu7k4t5s",465,"130.csv","","null","resources/maskTrios/L1BB.jpg","null","",NA,NA,NA,NA,""
"image-keyboard-response",250,253484,"0.0-3.79-2.79","p2c2yq7cu7k4t5s",465,"130.csv","","null","resources/images/coin2.png","null","",NA,NA,NA,NA,""
"image-keyboard-response",251,253797,"0.0-3.80-0.80","p2c2yq7cu7k4t5s",465,"130.csv","","311.80000001192093","resources/trios/L4T2A3.jpg","39","restless",0.6,0.6,0.5,0.283576579505388,"true"
"image-keyboard-response",252,254203,"0.0-3.80-1.80","p2c2yq7cu7k4t5s",465,"130.csv","","null","resources/maskTrios/BBA3.jpg","null","",NA,NA,NA,NA,""
"image-keyboard-response",253,255410,"0.0-3.80-2.80","p2c2yq7cu7k4t5s",465,"130.csv","","null","resources/images/coin2.png","null","",NA,NA,NA,NA,""
"image-keyboard-response",254,255708,"0.0-3.81-0.81","p2c2yq7cu7k4t5s",465,"130.csv","","295.7999999821186","resources/trios/L1T4A2.jpg","39","restless",0.6,0.6,0.5,0.00926652392102745,"true"
"image-keyboard-response",255,256115,"0.0-3.81-1.81","p2c2yq7cu7k4t5s",465,"130.csv","","null","resources/maskTrios/BBA2.jpg","null","",NA,NA,NA,NA,""
"image-keyboard-response",256,257321,"0.0-3.81-2.81","p2c2yq7cu7k4t5s",465,"130.csv","","null","resources/images/coin2.png","null","",NA,NA,NA,NA,""
"image-keyboard-response",257,257623,"0.0-3.82-0.82","p2c2yq7cu7k4t5s",465,"130.csv","","300.19999998807907","resources/trios/L4T4A3.jpg","37","restless",0.6,0.6,0.5,0.413278422426327,"true"
"image-keyboard-response",258,258029,"0.0-3.82-1.82","p2c2yq7cu7k4t5s",465,"130.csv","","null","resources/maskTrios/L4BB.jpg","null","",NA,NA,NA,NA,""
"image-keyboard-response",259,259236,"0.0-3.82-2.82","p2c2yq7cu7k4t5s",465,"130.csv","","null","resources/images/coin2.png","null","",NA,NA,NA,NA,""
"image-keyboard-response",260,259541,"0.0-3.83-0.83","p2c2yq7cu7k4t5s",465,"130.csv","","303.30000001192093","resources/trios/L1T4A2.jpg","37","restless",0.6,0.6,0.5,0.425209333528664,"true"
"image-keyboard-response",261,259947,"0.0-3.83-1.83","p2c2yq7cu7k4t5s",465,"130.csv","","null","resources/maskTrios/L1BB.jpg","null","",NA,NA,NA,NA,""
"image-keyboard-response",262,261149,"0.0-3.83-2.83","p2c2yq7cu7k4t5s",465,"130.csv","","null","resources/images/coin2.png","null","",NA,NA,NA,NA,""
"image-keyboard-response",263,261453,"0.0-3.84-0.84","p2c2yq7cu7k4t5s",465,"130.csv","","302.7999999821186","resources/trios/L4T4A3.jpg","39","restless",0.6,0.6,0.5,0.137390713579406,"true"
"image-keyboard-response",264,261855,"0.0-3.84-1.84","p2c2yq7cu7k4t5s",465,"130.csv","","null","resources/maskTrios/BBA3.jpg","null","",NA,NA,NA,NA,""
"image-keyboard-response",265,263062,"0.0-3.84-2.84","p2c2yq7cu7k4t5s",465,"130.csv","","null","resources/images/coin2.png","null","",NA,NA,NA,NA,""
"image-keyboard-response",266,263354,"0.0-3.85-0.85","p2c2yq7cu7k4t5s",465,"130.csv","","290.69999998807907","resources/trios/L1T2A3.jpg","39","restless",0.7,0.6,0.5,0.326824114773419,"true"
"image-keyboard-response",267,263755,"0.0-3.85-1.85","p2c2yq7cu7k4t5s",465,"130.csv","","null","resources/maskTrios/BBA3.jpg","null","",NA,NA,NA,NA,""
"image-keyboard-response",268,264962,"0.0-3.85-2.85","p2c2yq7cu7k4t5s",465,"130.csv","","null","resources/images/coin2.png","null","",NA,NA,NA,NA,""
"image-keyboard-response",269,265264,"0.0-3.86-0.86","p2c2yq7cu7k4t5s",465,"130.csv","","300.5","resources/trios/L4T4A2.jpg","37","restless",0.7,0.6,0.5,0.437311622941908,"true"
"image-keyboard-response",270,265670,"0.0-3.86-1.86","p2c2yq7cu7k4t5s",465,"130.csv","","null","resources/maskTrios/L4BB.jpg","null","",NA,NA,NA,NA,""
"image-keyboard-response",271,266874,"0.0-3.86-2.86","p2c2yq7cu7k4t5s",465,"130.csv","","null","resources/images/coin2.png","null","",NA,NA,NA,NA,""
"image-keyboard-response",272,267163,"0.0-3.87-0.87","p2c2yq7cu7k4t5s",465,"130.csv","","287.59999999403954","resources/trios/L4T4A2.jpg","37","restless",0.7,0.6,0.5,0.115092345942683,"true"
"image-keyboard-response",273,267569,"0.0-3.87-1.87","p2c2yq7cu7k4t5s",465,"130.csv","","null","resources/maskTrios/L4BB.jpg","null","",NA,NA,NA,NA,""
"image-keyboard-response",274,268773,"0.0-3.87-2.87","p2c2yq7cu7k4t5s",465,"130.csv","","null","resources/images/coin2.png","null","",NA,NA,NA,NA,""
"image-keyboard-response",275,269086,"0.0-3.88-0.88","p2c2yq7cu7k4t5s",465,"130.csv","","311.90000000596046","resources/trios/L1T4A3.jpg","39","restless",0.7,0.6,0.5,0.680083862170036,"false"
"image-keyboard-response",276,269493,"0.0-3.88-1.88","p2c2yq7cu7k4t5s",465,"130.csv","","null","resources/maskTrios/BBA3.jpg","null","",NA,NA,NA,NA,""
"image-keyboard-response",277,270700,"0.0-3.88-2.88","p2c2yq7cu7k4t5s",465,"130.csv","","null","resources/images/fishbone.png","null","",NA,NA,NA,NA,""
"image-keyboard-response",278,271044,"0.0-3.89-0.89","p2c2yq7cu7k4t5s",465,"130.csv","","343.5","resources/trios/L4T4A3.jpg","37","restless",0.7,0.6,0.5,0.877296508014513,"false"
"image-keyboard-response",279,271450,"0.0-3.89-1.89","p2c2yq7cu7k4t5s",465,"130.csv","","null","resources/maskTrios/L4BB.jpg","null","",NA,NA,NA,NA,""
"image-keyboard-response",280,272656,"0.0-3.89-2.89","p2c2yq7cu7k4t5s",465,"130.csv","","null","resources/images/fishbone.png","null","",NA,NA,NA,NA,""
"image-keyboard-response",281,272915,"0.0-3.90-0.90","p2c2yq7cu7k4t5s",465,"130.csv","","258","resources/trios/L4T2A2.jpg","39","restless",0.6,0.6,0.5,0.0392747268527207,"true"
"image-keyboard-response",282,273317,"0.0-3.90-1.90","p2c2yq7cu7k4t5s",465,"130.csv","","null","resources/maskTrios/BBA2.jpg","null","",NA,NA,NA,NA,""
"image-keyboard-response",283,274520,"0.0-3.90-2.90","p2c2yq7cu7k4t5s",465,"130.csv","","null","resources/images/coin2.png","null","",NA,NA,NA,NA,""
"image-keyboard-response",284,274843,"0.0-3.91-0.91","p2c2yq7cu7k4t5s",465,"130.csv","","321.19999998807907","resources/trios/L4T2A3.jpg","39","restless",0.6,0.6,0.5,0.592963469216046,"false"
"image-keyboard-response",285,275249,"0.0-3.91-1.91","p2c2yq7cu7k4t5s",465,"130.csv","","null","resources/maskTrios/BBA3.jpg","null","",NA,NA,NA,NA,""
"image-keyboard-response",286,276454,"0.0-3.91-2.91","p2c2yq7cu7k4t5s",465,"130.csv","","null","resources/images/fishbone.png","null","",NA,NA,NA,NA,""
"image-keyboard-response",287,276788,"0.0-3.92-0.92","p2c2yq7cu7k4t5s",465,"130.csv","","333.09999999403954","resources/trios/L4T2A3.jpg","37","restless",0.5,0.6,0.5,0.685077386720445,"false"
"image-keyboard-response",288,277194,"0.0-3.92-1.92","p2c2yq7cu7k4t5s",465,"130.csv","","null","resources/maskTrios/L4BB.jpg","null","",NA,NA,NA,NA,""
"image-keyboard-response",289,278401,"0.0-3.92-2.92","p2c2yq7cu7k4t5s",465,"130.csv","","null","resources/images/fishbone.png","null","",NA,NA,NA,NA,""
"image-keyboard-response",290,278983,"0.0-3.93-0.93","p2c2yq7cu7k4t5s",465,"130.csv","","581.1999999880791","resources/trios/L1T2A3.jpg","37","restless",0.5,0.6,0.5,0.966060917878424,"false"
"image-keyboard-response",291,279390,"0.0-3.93-1.93","p2c2yq7cu7k4t5s",465,"130.csv","","null","resources/maskTrios/L1BB.jpg","null","",NA,NA,NA,NA,""
"image-keyboard-response",292,280596,"0.0-3.93-2.93","p2c2yq7cu7k4t5s",465,"130.csv","","null","resources/images/fishbone.png","null","",NA,NA,NA,NA,""
"image-keyboard-response",293,280667,"0.0-3.94-0.94","p2c2yq7cu7k4t5s",465,"130.csv","","69.09999999403954","resources/trios/L1T4A2.jpg","37","restless",0.5,0.6,0.5,0.882678799241393,"false"
"image-keyboard-response",294,281073,"0.0-3.94-1.94","p2c2yq7cu7k4t5s",465,"130.csv","","null","resources/maskTrios/L1BB.jpg","null","",NA,NA,NA,NA,""
"image-keyboard-response",295,282279,"0.0-3.94-2.94","p2c2yq7cu7k4t5s",465,"130.csv","","null","resources/images/fishbone.png","null","",NA,NA,NA,NA,""
"image-keyboard-response",296,282627,"0.0-3.95-0.95","p2c2yq7cu7k4t5s",465,"130.csv","","346","resources/trios/L4T4A2.jpg","37","restless",0.5,0.6,0.5,0.902132031784318,"false"
"image-keyboard-response",297,283033,"0.0-3.95-1.95","p2c2yq7cu7k4t5s",465,"130.csv","","null","resources/maskTrios/L4BB.jpg","null","",NA,NA,NA,NA,""
"image-keyboard-response",298,284234,"0.0-3.95-2.95","p2c2yq7cu7k4t5s",465,"130.csv","","null","resources/images/fishbone.png","null","",NA,NA,NA,NA,""
"image-keyboard-response",299,284532,"0.0-3.96-0.96","p2c2yq7cu7k4t5s",465,"130.csv","","296.80000001192093","resources/trios/L4T4A3.jpg","39","restless",0.5,0.6,0.5,0.440816075733903,"true"
"image-keyboard-response",300,284939,"0.0-3.96-1.96","p2c2yq7cu7k4t5s",465,"130.csv","","null","resources/maskTrios/BBA3.jpg","null","",NA,NA,NA,NA,""
"image-keyboard-response",301,286145,"0.0-3.96-2.96","p2c2yq7cu7k4t5s",465,"130.csv","","null","resources/images/coin2.png","null","",NA,NA,NA,NA,""
"image-keyboard-response",302,286452,"0.0-3.97-0.97","p2c2yq7cu7k4t5s",465,"130.csv","","305.2999999821186","resources/trios/L1T2A2.jpg","39","restless",0.5,0.6,0.5,0.218508292938336,"true"
"image-keyboard-response",303,286858,"0.0-3.97-1.97","p2c2yq7cu7k4t5s",465,"130.csv","","null","resources/maskTrios/BBA2.jpg","null","",NA,NA,NA,NA,""
"image-keyboard-response",304,288065,"0.0-3.97-2.97","p2c2yq7cu7k4t5s",465,"130.csv","","null","resources/images/coin2.png","null","",NA,NA,NA,NA,""
"image-keyboard-response",305,288399,"0.0-3.98-0.98","p2c2yq7cu7k4t5s",465,"130.csv","","332.5","resources/trios/L1T4A2.jpg","39","restless",0.5,0.6,0.5,0.37387788570863,"true"
"image-keyboard-response",306,288805,"0.0-3.98-1.98","p2c2yq7cu7k4t5s",465,"130.csv","","null","resources/maskTrios/BBA2.jpg","null","",NA,NA,NA,NA,""
"image-keyboard-response",307,290012,"0.0-3.98-2.98","p2c2yq7cu7k4t5s",465,"130.csv","","null","resources/images/coin2.png","null","",NA,NA,NA,NA,""
"image-keyboard-response",308,290521,"0.0-3.99-0.99","p2c2yq7cu7k4t5s",465,"130.csv","","508","resources/trios/L4T4A3.jpg","39","restless",0.5,0.6,0.5,0.491844410738284,"true"
"image-keyboard-response",309,290923,"0.0-3.99-1.99","p2c2yq7cu7k4t5s",465,"130.csv","","null","resources/maskTrios/BBA3.jpg","null","",NA,NA,NA,NA,""
"image-keyboard-response",310,292130,"0.0-3.99-2.99","p2c2yq7cu7k4t5s",465,"130.csv","","null","resources/images/coin2.png","null","",NA,NA,NA,NA,""
"image-keyboard-response",311,292407,"0.0-3.100-0.100","p2c2yq7cu7k4t5s",465,"130.csv","","276.09999999403954","resources/trios/L1T2A2.jpg","39","restless",0.5,0.6,0.5,0.227279356397884,"true"
"image-keyboard-response",312,292813,"0.0-3.100-1.100","p2c2yq7cu7k4t5s",465,"130.csv","","null","resources/maskTrios/BBA2.jpg","null","",NA,NA,NA,NA,""
"image-keyboard-response",313,294021,"0.0-3.100-2.100","p2c2yq7cu7k4t5s",465,"130.csv","","null","resources/images/coin2.png","null","",NA,NA,NA,NA,""
"image-keyboard-response",314,294310,"0.0-3.101-0.101","p2c2yq7cu7k4t5s",465,"130.csv","","288.5","resources/trios/L4T4A3.jpg","39","restless",0.5,0.6,0.5,0.774825709653405,"false"
"image-keyboard-response",315,294714,"0.0-3.101-1.101","p2c2yq7cu7k4t5s",465,"130.csv","","null","resources/maskTrios/BBA3.jpg","null","",NA,NA,NA,NA,""
"image-keyboard-response",316,295920,"0.0-3.101-2.101","p2c2yq7cu7k4t5s",465,"130.csv","","null","resources/images/fishbone.png","null","",NA,NA,NA,NA,""
"image-keyboard-response",317,296292,"0.0-3.102-0.102","p2c2yq7cu7k4t5s",465,"130.csv","","370.09999999403954","resources/trios/L1T4A3.jpg","37","restless",0.5,0.6,0.5,0.728374025642804,"false"
"image-keyboard-response",318,296698,"0.0-3.102-1.102","p2c2yq7cu7k4t5s",465,"130.csv","","null","resources/maskTrios/L1BB.jpg","null","",NA,NA,NA,NA,""
"image-keyboard-response",319,297905,"0.0-3.102-2.102","p2c2yq7cu7k4t5s",465,"130.csv","","null","resources/images/fishbone.png","null","",NA,NA,NA,NA,""
"image-keyboard-response",320,299267,"0.0-3.103-0.103","p2c2yq7cu7k4t5s",465,"130.csv","","1361.1000000238419","resources/trios/L4T2A2.jpg","38","restless",0.5,0.6,0.5,0.410827444003882,"true"
"image-keyboard-response",321,299674,"0.0-3.103-1.103","p2c2yq7cu7k4t5s",465,"130.csv","","null","resources/maskTrios/BT2B.jpg","null","",NA,NA,NA,NA,""
"image-keyboard-response",322,300877,"0.0-3.103-2.103","p2c2yq7cu7k4t5s",465,"130.csv","","null","resources/images/coin2.png","null","",NA,NA,NA,NA,""
"image-keyboard-response",323,301178,"0.0-3.104-0.104","p2c2yq7cu7k4t5s",465,"130.csv","","299.30000001192093","resources/trios/L1T4A2.jpg","38","restless",0.5,0.6,0.5,0.58215994136007,"true"
"image-keyboard-response",324,301584,"0.0-3.104-1.104","p2c2yq7cu7k4t5s",465,"130.csv","","null","resources/maskTrios/BT4B.jpg","null","",NA,NA,NA,NA,""
"image-keyboard-response",325,302791,"0.0-3.104-2.104","p2c2yq7cu7k4t5s",465,"130.csv","","null","resources/images/coin2.png","null","",NA,NA,NA,NA,""
"image-keyboard-response",326,303083,"0.0-3.105-0.105","p2c2yq7cu7k4t5s",465,"130.csv","","291.59999999403954","resources/trios/L4T2A3.jpg","38","restless",0.5,0.6,0.4,0.700503077218263,"false"
"image-keyboard-response",327,303486,"0.0-3.105-1.105","p2c2yq7cu7k4t5s",465,"130.csv","","null","resources/maskTrios/BT2B.jpg","null","",NA,NA,NA,NA,""
"image-keyboard-response",328,304693,"0.0-3.105-2.105","p2c2yq7cu7k4t5s",465,"130.csv","","null","resources/images/fishbone.png","null","",NA,NA,NA,NA,""
"image-keyboard-response",329,304914,"0.0-3.106-0.106","p2c2yq7cu7k4t5s",465,"130.csv","","220.30000001192093","resources/trios/L1T4A2.jpg","37","restless",0.5,0.6,0.4,0.808279758367779,"false"
"image-keyboard-response",330,305320,"0.0-3.106-1.106","p2c2yq7cu7k4t5s",465,"130.csv","","null","resources/maskTrios/L1BB.jpg","null","",NA,NA,NA,NA,""
"image-keyboard-response",331,306526,"0.0-3.106-2.106","p2c2yq7cu7k4t5s",465,"130.csv","","null","resources/images/fishbone.png","null","",NA,NA,NA,NA,""
"image-keyboard-response",332,306667,"0.0-3.107-0.107","p2c2yq7cu7k4t5s",465,"130.csv","","140","resources/trios/L4T4A3.jpg","39","restless",0.5,0.6,0.3,0.286582025430009,"true"
"image-keyboard-response",333,307074,"0.0-3.107-1.107","p2c2yq7cu7k4t5s",465,"130.csv","","null","resources/maskTrios/BBA3.jpg","null","",NA,NA,NA,NA,""
"image-keyboard-response",334,308278,"0.0-3.107-2.107","p2c2yq7cu7k4t5s",465,"130.csv","","null","resources/images/coin2.png","null","",NA,NA,NA,NA,""
"image-keyboard-response",335,308595,"0.0-3.108-0.108","p2c2yq7cu7k4t5s",465,"130.csv","","316.30000001192093","resources/trios/L4T4A2.jpg","39","restless",0.5,0.6,0.3,0.479077079253944,"false"
"image-keyboard-response",336,308997,"0.0-3.108-1.108","p2c2yq7cu7k4t5s",465,"130.csv","","null","resources/maskTrios/BBA2.jpg","null","",NA,NA,NA,NA,""
"image-keyboard-response",337,310203,"0.0-3.108-2.108","p2c2yq7cu7k4t5s",465,"130.csv","","null","resources/images/fishbone.png","null","",NA,NA,NA,NA,""
"image-keyboard-response",338,310491,"0.0-3.109-0.109","p2c2yq7cu7k4t5s",465,"130.csv","","286.09999999403954","resources/trios/L1T4A2.jpg","38","restless",0.5,0.6,0.3,0.461612510946231,"true"
"image-keyboard-response",339,310897,"0.0-3.109-1.109","p2c2yq7cu7k4t5s",465,"130.csv","","null","resources/maskTrios/BT4B.jpg","null","",NA,NA,NA,NA,""
"image-keyboard-response",340,312104,"0.0-3.109-2.109","p2c2yq7cu7k4t5s",465,"130.csv","","null","resources/images/coin2.png","null","",NA,NA,NA,NA,""
"image-keyboard-response",341,312412,"0.0-3.110-0.110","p2c2yq7cu7k4t5s",465,"130.csv","","307.2999999821186","resources/trios/L1T2A2.jpg","38","restless",0.5,0.6,0.3,0.527638648412707,"true"
"image-keyboard-response",342,312818,"0.0-3.110-1.110","p2c2yq7cu7k4t5s",465,"130.csv","","null","resources/maskTrios/BT2B.jpg","null","",NA,NA,NA,NA,""
"image-keyboard-response",343,314025,"0.0-3.110-2.110","p2c2yq7cu7k4t5s",465,"130.csv","","null","resources/images/coin2.png","null","",NA,NA,NA,NA,""
"image-keyboard-response",344,314408,"0.0-3.111-0.111","p2c2yq7cu7k4t5s",465,"130.csv","","382.19999998807907","resources/trios/L4T4A2.jpg","38","restless",0.5,0.6,0.3,0.898552966386603,"false"
"image-keyboard-response",345,314810,"0.0-3.111-1.111","p2c2yq7cu7k4t5s",465,"130.csv","","null","resources/maskTrios/BT4B.jpg","null","",NA,NA,NA,NA,""
"image-keyboard-response",346,316017,"0.0-3.111-2.111","p2c2yq7cu7k4t5s",465,"130.csv","","null","resources/images/fishbone.png","null","",NA,NA,NA,NA,""
"image-keyboard-response",347,316417,"0.0-3.112-0.112","p2c2yq7cu7k4t5s",465,"130.csv","","399.2000000178814","resources/trios/L4T2A2.jpg","37","restless",0.5,0.6,0.3,0.356304774045698,"true"
"image-keyboard-response",348,316823,"0.0-3.112-1.112","p2c2yq7cu7k4t5s",465,"130.csv","","null","resources/maskTrios/L4BB.jpg","null","",NA,NA,NA,NA,""
"image-keyboard-response",349,318030,"0.0-3.112-2.112","p2c2yq7cu7k4t5s",465,"130.csv","","null","resources/images/coin2.png","null","",NA,NA,NA,NA,""
"image-keyboard-response",350,318330,"0.0-3.113-0.113","p2c2yq7cu7k4t5s",465,"130.csv","","299.19999998807907","resources/trios/L1T4A2.jpg","37","restless",0.5,0.6,0.3,0.826120967630955,"false"
"image-keyboard-response",351,318732,"0.0-3.113-1.113","p2c2yq7cu7k4t5s",465,"130.csv","","null","resources/maskTrios/L1BB.jpg","null","",NA,NA,NA,NA,""
"image-keyboard-response",352,319939,"0.0-3.113-2.113","p2c2yq7cu7k4t5s",465,"130.csv","","null","resources/images/fishbone.png","null","",NA,NA,NA,NA,""
"image-keyboard-response",353,320308,"0.0-3.114-0.114","p2c2yq7cu7k4t5s",465,"130.csv","","368.30000001192093","resources/trios/L4T4A2.jpg","39","restless",0.5,0.6,0.3,0.495685021222204,"false"
"image-keyboard-response",354,320712,"0.0-3.114-1.114","p2c2yq7cu7k4t5s",465,"130.csv","","null","resources/maskTrios/BBA2.jpg","null","",NA,NA,NA,NA,""
"image-keyboard-response",355,321918,"0.0-3.114-2.114","p2c2yq7cu7k4t5s",465,"130.csv","","null","resources/images/fishbone.png","null","",NA,NA,NA,NA,""
"image-keyboard-response",356,322053,"0.0-3.115-0.115","p2c2yq7cu7k4t5s",465,"130.csv","","133.59999999403954","resources/trios/L1T2A2.jpg","38","restless",0.4,0.6,0.3,0.223951268341301,"true"
"image-keyboard-response",357,322459,"0.0-3.115-1.115","p2c2yq7cu7k4t5s",465,"130.csv","","null","resources/maskTrios/BT2B.jpg","null","",NA,NA,NA,NA,""
"image-keyboard-response",358,323666,"0.0-3.115-2.115","p2c2yq7cu7k4t5s",465,"130.csv","","null","resources/images/coin2.png","null","",NA,NA,NA,NA,""
"image-keyboard-response",359,323916,"0.0-3.116-0.116","p2c2yq7cu7k4t5s",465,"130.csv","","249","resources/trios/L1T2A2.jpg","38","restless",0.4,0.6,0.2,0.843775437020664,"false"
"image-keyboard-response",360,324323,"0.0-3.116-1.116","p2c2yq7cu7k4t5s",465,"130.csv","","null","resources/maskTrios/BT2B.jpg","null","",NA,NA,NA,NA,""
"image-keyboard-response",361,325524,"0.0-3.116-2.116","p2c2yq7cu7k4t5s",465,"130.csv","","null","resources/images/fishbone.png","null","",NA,NA,NA,NA,""
"image-keyboard-response",362,326607,"0.0-3.117-0.117","p2c2yq7cu7k4t5s",465,"130.csv","","1082","resources/trios/L4T4A2.jpg","37","restless",0.4,0.6,0.2,0.366949250865681,"true"
"image-keyboard-response",363,327014,"0.0-3.117-1.117","p2c2yq7cu7k4t5s",465,"130.csv","","null","resources/maskTrios/L4BB.jpg","null","",NA,NA,NA,NA,""
"image-keyboard-response",364,328220,"0.0-3.117-2.117","p2c2yq7cu7k4t5s",465,"130.csv","","null","resources/images/coin2.png","null","",NA,NA,NA,NA,""
"image-keyboard-response",365,328512,"0.0-3.118-0.118","p2c2yq7cu7k4t5s",465,"130.csv","","290.69999998807907","resources/trios/L4T4A2.jpg","37","restless",0.4,0.6,0.2,0.636253357584875,"false"
"image-keyboard-response",366,328918,"0.0-3.118-1.118","p2c2yq7cu7k4t5s",465,"130.csv","","null","resources/maskTrios/L4BB.jpg","null","",NA,NA,NA,NA,""
"image-keyboard-response",367,330124,"0.0-3.118-2.118","p2c2yq7cu7k4t5s",465,"130.csv","","null","resources/images/fishbone.png","null","",NA,NA,NA,NA,""
"image-keyboard-response",368,330818,"0.0-3.119-0.119","p2c2yq7cu7k4t5s",465,"130.csv","","693","resources/trios/L1T4A2.jpg","38","restless",0.4,0.6,0.2,0.589177884902237,"true"
"image-keyboard-response",369,331224,"0.0-3.119-1.119","p2c2yq7cu7k4t5s",465,"130.csv","","null","resources/maskTrios/BT4B.jpg","null","",NA,NA,NA,NA,""
"image-keyboard-response",370,332428,"0.0-3.119-2.119","p2c2yq7cu7k4t5s",465,"130.csv","","null","resources/images/coin2.png","null","",NA,NA,NA,NA,""
"image-keyboard-response",371,332749,"0.0-3.120-0.120","p2c2yq7cu7k4t5s",465,"130.csv","","320.2000000178814","resources/trios/L4T2A3.jpg","37","restless",0.4,0.6,0.2,0.457397874824965,"false"
"image-keyboard-response",372,333153,"0.0-3.120-1.120","p2c2yq7cu7k4t5s",465,"130.csv","","null","resources/maskTrios/L4BB.jpg","null","",NA,NA,NA,NA,""
"image-keyboard-response",373,334360,"0.0-3.120-2.120","p2c2yq7cu7k4t5s",465,"130.csv","","null","resources/images/fishbone.png","null","",NA,NA,NA,NA,""
"image-keyboard-response",374,334655,"0.0-3.121-0.121","p2c2yq7cu7k4t5s",465,"130.csv","","293.7999999821186","resources/trios/L1T2A2.jpg","39","restless",0.3,0.6,0.2,0.694630608543227,"false"
"image-keyboard-response",375,335056,"0.0-3.121-1.121","p2c2yq7cu7k4t5s",465,"130.csv","","null","resources/maskTrios/BBA2.jpg","null","",NA,NA,NA,NA,""
"image-keyboard-response",376,336262,"0.0-3.121-2.121","p2c2yq7cu7k4t5s",465,"130.csv","","null","resources/images/fishbone.png","null","",NA,NA,NA,NA,""
"image-keyboard-response",377,336511,"0.0-3.122-0.122","p2c2yq7cu7k4t5s",465,"130.csv","","247.39999997615814","resources/trios/L1T2A2.jpg","38","restless",0.3,0.6,0.3,0.299920060335679,"true"
"image-keyboard-response",378,336917,"0.0-3.122-1.122","p2c2yq7cu7k4t5s",465,"130.csv","","null","resources/maskTrios/BT2B.jpg","null","",NA,NA,NA,NA,""
"image-keyboard-response",379,338124,"0.0-3.122-2.122","p2c2yq7cu7k4t5s",465,"130.csv","","null","resources/images/coin2.png","null","",NA,NA,NA,NA,""
"image-keyboard-response",380,339609,"0.0-3.123-0.123","p2c2yq7cu7k4t5s",465,"130.csv","","1483.7000000178814","resources/trios/L4T4A3.jpg","37","restless",0.3,0.6,0.4,0.524438991413652,"false"
"image-keyboard-response",381,340016,"0.0-3.123-1.123","p2c2yq7cu7k4t5s",465,"130.csv","","null","resources/maskTrios/L4BB.jpg","null","",NA,NA,NA,NA,""
"image-keyboard-response",382,341222,"0.0-3.123-2.123","p2c2yq7cu7k4t5s",465,"130.csv","","null","resources/images/fishbone.png","null","",NA,NA,NA,NA,""
"image-keyboard-response",383,341542,"0.0-3.124-0.124","p2c2yq7cu7k4t5s",465,"130.csv","","319.40000000596046","resources/trios/L4T4A3.jpg","38","restless",0.3,0.6,0.4,0.105194493101592,"true"
"image-keyboard-response",384,341949,"0.0-3.124-1.124","p2c2yq7cu7k4t5s",465,"130.csv","","null","resources/maskTrios/BT4B.jpg","null","",NA,NA,NA,NA,""
"image-keyboard-response",385,343150,"0.0-3.124-2.124","p2c2yq7cu7k4t5s",465,"130.csv","","null","resources/images/coin2.png","null","",NA,NA,NA,NA,""
"image-keyboard-response",386,343461,"0.0-3.125-0.125","p2c2yq7cu7k4t5s",465,"130.csv","","309.59999999403954","resources/trios/L4T4A2.jpg","38","restless",0.3,0.7,0.4,0.768350505462151,"false"
"image-keyboard-response",387,343864,"0.0-3.125-1.125","p2c2yq7cu7k4t5s",465,"130.csv","","null","resources/maskTrios/BT4B.jpg","null","",NA,NA,NA,NA,""
"image-keyboard-response",388,345071,"0.0-3.125-2.125","p2c2yq7cu7k4t5s",465,"130.csv","","null","resources/images/fishbone.png","null","",NA,NA,NA,NA,""
"image-keyboard-response",389,345311,"0.0-3.126-0.126","p2c2yq7cu7k4t5s",465,"130.csv","","239.5","resources/trios/L1T2A2.jpg","39","restless",0.3,0.7,0.4,0.650578299706038,"false"
"image-keyboard-response",390,345715,"0.0-3.126-1.126","p2c2yq7cu7k4t5s",465,"130.csv","","null","resources/maskTrios/BBA2.jpg","null","",NA,NA,NA,NA,""
"image-keyboard-response",391,346922,"0.0-3.126-2.126","p2c2yq7cu7k4t5s",465,"130.csv","","null","resources/images/fishbone.png","null","",NA,NA,NA,NA,""
"image-keyboard-response",392,347134,"0.0-3.127-0.127","p2c2yq7cu7k4t5s",465,"130.csv","","210.90000000596046","resources/trios/L4T2A2.jpg","37","restless",0.3,0.7,0.4,0.717096892229046,"false"
"image-keyboard-response",393,347540,"0.0-3.127-1.127","p2c2yq7cu7k4t5s",465,"130.csv","","null","resources/maskTrios/L4BB.jpg","null","",NA,NA,NA,NA,""
"image-keyboard-response",394,348746,"0.0-3.127-2.127","p2c2yq7cu7k4t5s",465,"130.csv","","null","resources/images/fishbone.png","null","",NA,NA,NA,NA,""
"image-keyboard-response",395,348983,"0.0-3.128-0.128","p2c2yq7cu7k4t5s",465,"130.csv","","236.69999998807907","resources/trios/L4T2A2.jpg","38","restless",0.3,0.7,0.4,0.662807182202636,"true"
"image-keyboard-response",396,349390,"0.0-3.128-1.128","p2c2yq7cu7k4t5s",465,"130.csv","","null","resources/maskTrios/BT2B.jpg","null","",NA,NA,NA,NA,""
"image-keyboard-response",397,350593,"0.0-3.128-2.128","p2c2yq7cu7k4t5s",465,"130.csv","","null","resources/images/coin2.png","null","",NA,NA,NA,NA,""
"image-keyboard-response",398,350867,"0.0-3.129-0.129","p2c2yq7cu7k4t5s",465,"130.csv","","272.2999999821186","resources/trios/L4T2A2.jpg","38","restless",0.3,0.7,0.4,0.186512376297362,"true"
"image-keyboard-response",399,351268,"0.0-3.129-1.129","p2c2yq7cu7k4t5s",465,"130.csv","","null","resources/maskTrios/BT2B.jpg","null","",NA,NA,NA,NA,""
"image-keyboard-response",400,352475,"0.0-3.129-2.129","p2c2yq7cu7k4t5s",465,"130.csv","","null","resources/images/coin2.png","null","",NA,NA,NA,NA,""
"image-keyboard-response",401,352797,"0.0-3.130-0.130","p2c2yq7cu7k4t5s",465,"130.csv","","320.69999998807907","resources/trios/L4T2A2.jpg","38","restless",0.3,0.7,0.5,0.642979880525214,"true"
"image-keyboard-response",402,353199,"0.0-3.130-1.130","p2c2yq7cu7k4t5s",465,"130.csv","","null","resources/maskTrios/BT2B.jpg","null","",NA,NA,NA,NA,""
"image-keyboard-response",403,354406,"0.0-3.130-2.130","p2c2yq7cu7k4t5s",465,"130.csv","","null","resources/images/coin2.png","null","",NA,NA,NA,NA,""
"image-keyboard-response",404,354751,"0.0-3.131-0.131","p2c2yq7cu7k4t5s",465,"130.csv","","343.7000000178814","resources/trios/L4T2A2.jpg","38","restless",0.3,0.7,0.5,0.327191742814213,"true"
"image-keyboard-response",405,355157,"0.0-3.131-1.131","p2c2yq7cu7k4t5s",465,"130.csv","","null","resources/maskTrios/BT2B.jpg","null","",NA,NA,NA,NA,""
"image-keyboard-response",406,356360,"0.0-3.131-2.131","p2c2yq7cu7k4t5s",465,"130.csv","","null","resources/images/coin2.png","null","",NA,NA,NA,NA,""
"image-keyboard-response",407,356451,"0.0-3.132-0.132","p2c2yq7cu7k4t5s",465,"130.csv","","89.90000000596046","resources/trios/L1T4A2.jpg","38","restless",0.3,0.7,0.5,0.769759643292585,"false"
"image-keyboard-response",408,356857,"0.0-3.132-1.132","p2c2yq7cu7k4t5s",465,"130.csv","","null","resources/maskTrios/BT4B.jpg","null","",NA,NA,NA,NA,""
"image-keyboard-response",409,358059,"0.0-3.132-2.132","p2c2yq7cu7k4t5s",465,"130.csv","","null","resources/images/fishbone.png","null","",NA,NA,NA,NA,""
"image-keyboard-response",410,358774,"0.0-3.133-0.133","p2c2yq7cu7k4t5s",465,"130.csv","","713.9000000059605","resources/trios/L1T2A2.jpg","39","restless",0.2,0.7,0.5,0.334492163826221,"true"
"image-keyboard-response",411,359180,"0.0-3.133-1.133","p2c2yq7cu7k4t5s",465,"130.csv","","null","resources/maskTrios/BBA2.jpg","null","",NA,NA,NA,NA,""
"image-keyboard-response",412,360387,"0.0-3.133-2.133","p2c2yq7cu7k4t5s",465,"130.csv","","null","resources/images/coin2.png","null","",NA,NA,NA,NA,""
"image-keyboard-response",413,360670,"0.0-3.134-0.134","p2c2yq7cu7k4t5s",465,"130.csv","","282","resources/trios/L1T4A2.jpg","39","restless",0.2,0.7,0.6,0.860895265550965,"false"
"image-keyboard-response",414,361075,"0.0-3.134-1.134","p2c2yq7cu7k4t5s",465,"130.csv","","null","resources/maskTrios/BBA2.jpg","null","",NA,NA,NA,NA,""
"image-keyboard-response",415,362281,"0.0-3.134-2.134","p2c2yq7cu7k4t5s",465,"130.csv","","null","resources/images/fishbone.png","null","",NA,NA,NA,NA,""
"image-keyboard-response",416,362913,"0.0-3.135-0.135","p2c2yq7cu7k4t5s",465,"130.csv","","630.9000000059605","resources/trios/L1T4A3.jpg","37","restless",0.2,0.8,0.6,0.264806242905906,"false"
"image-keyboard-response",417,363319,"0.0-3.135-1.135","p2c2yq7cu7k4t5s",465,"130.csv","","null","resources/maskTrios/L1BB.jpg","null","",NA,NA,NA,NA,""
"image-keyboard-response",418,364526,"0.0-3.135-2.135","p2c2yq7cu7k4t5s",465,"130.csv","","null","resources/images/fishbone.png","null","",NA,NA,NA,NA,""
"image-keyboard-response",419,364803,"0.0-3.136-0.136","p2c2yq7cu7k4t5s",465,"130.csv","","276.5","resources/trios/L4T4A3.jpg","37","restless",0.2,0.8,0.6,0.513401871204835,"false"
"image-keyboard-response",420,365208,"0.0-3.136-1.136","p2c2yq7cu7k4t5s",465,"130.csv","","null","resources/maskTrios/L4BB.jpg","null","",NA,NA,NA,NA,""
"image-keyboard-response",421,366414,"0.0-3.136-2.136","p2c2yq7cu7k4t5s",465,"130.csv","","null","resources/images/fishbone.png","null","",NA,NA,NA,NA,""
"image-keyboard-response",422,366670,"0.0-3.137-0.137","p2c2yq7cu7k4t5s",465,"130.csv","","255.10000002384186","resources/trios/L1T2A3.jpg","39","restless",0.2,0.8,0.6,0.980348274396272,"false"
"image-keyboard-response",423,367073,"0.0-3.137-1.137","p2c2yq7cu7k4t5s",465,"130.csv","","null","resources/maskTrios/BBA3.jpg","null","",NA,NA,NA,NA,""
"image-keyboard-response",424,368280,"0.0-3.137-2.137","p2c2yq7cu7k4t5s",465,"130.csv","","null","resources/images/fishbone.png","null","",NA,NA,NA,NA,""
"image-keyboard-response",425,368569,"0.0-3.138-0.138","p2c2yq7cu7k4t5s",465,"130.csv","","288","resources/trios/L1T2A2.jpg","38","restless",0.2,0.8,0.5,0.487554990272321,"true"
"image-keyboard-response",426,368975,"0.0-3.138-1.138","p2c2yq7cu7k4t5s",465,"130.csv","","null","resources/maskTrios/BT2B.jpg","null","",NA,NA,NA,NA,""
"image-keyboard-response",427,370181,"0.0-3.138-2.138","p2c2yq7cu7k4t5s",465,"130.csv","","null","resources/images/coin2.png","null","",NA,NA,NA,NA,""
"image-keyboard-response",428,370468,"0.0-3.139-0.139","p2c2yq7cu7k4t5s",465,"130.csv","","286.2000000178814","resources/trios/L1T2A3.jpg","38","restless",0.2,0.8,0.5,0.597965827906322,"true"
"image-keyboard-response",429,370875,"0.0-3.139-1.139","p2c2yq7cu7k4t5s",465,"130.csv","","null","resources/maskTrios/BT2B.jpg","null","",NA,NA,NA,NA,""
"image-keyboard-response",430,372081,"0.0-3.139-2.139","p2c2yq7cu7k4t5s",465,"130.csv","","null","resources/images/coin2.png","null","",NA,NA,NA,NA,""
"image-keyboard-response",431,372206,"0.0-3.140-0.140","p2c2yq7cu7k4t5s",465,"130.csv","","124","resources/trios/L4T2A3.jpg","38","restless",0.2,0.8,0.5,0.309251101810622,"true"
"image-keyboard-response",432,372610,"0.0-3.140-1.140","p2c2yq7cu7k4t5s",465,"130.csv","","null","resources/maskTrios/BT2B.jpg","null","",NA,NA,NA,NA,""
"image-keyboard-response",433,373812,"0.0-3.140-2.140","p2c2yq7cu7k4t5s",465,"130.csv","","null","resources/images/coin2.png","null","",NA,NA,NA,NA,""
"image-keyboard-response",434,375458,"0.0-3.141-0.141","p2c2yq7cu7k4t5s",465,"130.csv","","1645","resources/trios/L4T4A3.jpg","38","restless",0.2,0.9,0.5,0.988625816082247,"false"
"image-keyboard-response",435,375865,"0.0-3.141-1.141","p2c2yq7cu7k4t5s",465,"130.csv","","null","resources/maskTrios/BT4B.jpg","null","",NA,NA,NA,NA,""
"image-keyboard-response",436,377071,"0.0-3.141-2.141","p2c2yq7cu7k4t5s",465,"130.csv","","null","resources/images/fishbone.png","null","",NA,NA,NA,NA,""
"image-keyboard-response",437,377261,"0.0-3.142-0.142","p2c2yq7cu7k4t5s",465,"130.csv","","188.59999999403954","resources/trios/L1T4A3.jpg","37","restless",0.1,0.9,0.5,0.713715566277022,"false"
"image-keyboard-response",438,377668,"0.0-3.142-1.142","p2c2yq7cu7k4t5s",465,"130.csv","","null","resources/maskTrios/L1BB.jpg","null","",NA,NA,NA,NA,""
"image-keyboard-response",439,378875,"0.0-3.142-2.142","p2c2yq7cu7k4t5s",465,"130.csv","","null","resources/images/fishbone.png","null","",NA,NA,NA,NA,""
"image-keyboard-response",440,379053,"0.0-3.143-0.143","p2c2yq7cu7k4t5s",465,"130.csv","","177.2000000178814","resources/trios/L1T2A2.jpg","37","restless",0.2,0.9,0.5,0.605566631746367,"false"
"image-keyboard-response",441,379456,"0.0-3.143-1.143","p2c2yq7cu7k4t5s",465,"130.csv","","null","resources/maskTrios/L1BB.jpg","null","",NA,NA,NA,NA,""
"image-keyboard-response",442,380663,"0.0-3.143-2.143","p2c2yq7cu7k4t5s",465,"130.csv","","null","resources/images/fishbone.png","null","",NA,NA,NA,NA,""
"image-keyboard-response",443,380982,"0.0-3.144-0.144","p2c2yq7cu7k4t5s",465,"130.csv","","318.09999999403954","resources/trios/L1T2A2.jpg","39","restless",0.2,0.9,0.5,0.612475768260279,"false"
"image-keyboard-response",444,381388,"0.0-3.144-1.144","p2c2yq7cu7k4t5s",465,"130.csv","","null","resources/maskTrios/BBA2.jpg","null","",NA,NA,NA,NA,""
"image-keyboard-response",445,382595,"0.0-3.144-2.144","p2c2yq7cu7k4t5s",465,"130.csv","","null","resources/images/fishbone.png","null","",NA,NA,NA,NA,""
"image-keyboard-response",446,382804,"0.0-3.145-0.145","p2c2yq7cu7k4t5s",465,"130.csv","","207.7999999821186","resources/trios/L1T2A2.jpg","39","restless",0.2,0.8,0.5,0.92344240516918,"false"
"image-keyboard-response",447,383211,"0.0-3.145-1.145","p2c2yq7cu7k4t5s",465,"130.csv","","null","resources/maskTrios/BBA2.jpg","null","",NA,NA,NA,NA,""
"image-keyboard-response",448,384417,"0.0-3.145-2.145","p2c2yq7cu7k4t5s",465,"130.csv","","null","resources/images/fishbone.png","null","",NA,NA,NA,NA,""
"image-keyboard-response",449,384546,"0.0-3.146-0.146","p2c2yq7cu7k4t5s",465,"130.csv","","127.90000000596046","resources/trios/L1T2A3.jpg","38","restless",0.2,0.7,0.5,0.621386583100214,"true"
"image-keyboard-response",450,384952,"0.0-3.146-1.146","p2c2yq7cu7k4t5s",465,"130.csv","","null","resources/maskTrios/BT2B.jpg","null","",NA,NA,NA,NA,""
"image-keyboard-response",451,386159,"0.0-3.146-2.146","p2c2yq7cu7k4t5s",465,"130.csv","","null","resources/images/coin2.png","null","",NA,NA,NA,NA,""
"image-keyboard-response",452,386446,"0.0-3.147-0.147","p2c2yq7cu7k4t5s",465,"130.csv","","286.2999999821186","resources/trios/L4T4A2.jpg","38","restless",0.2,0.7,0.5,0.182582779352482,"true"
"image-keyboard-response",453,386851,"0.0-3.147-1.147","p2c2yq7cu7k4t5s",465,"130.csv","","null","resources/maskTrios/BT4B.jpg","null","",NA,NA,NA,NA,""
"image-keyboard-response",454,388057,"0.0-3.147-2.147","p2c2yq7cu7k4t5s",465,"130.csv","","null","resources/images/coin2.png","null","",NA,NA,NA,NA,""
"image-keyboard-response",455,388169,"0.0-3.148-0.148","p2c2yq7cu7k4t5s",465,"130.csv","","110.39999997615814","resources/trios/L1T4A2.jpg","38","restless",0.2,0.7,0.5,0.98815481698256,"false"
"image-keyboard-response",456,388576,"0.0-3.148-1.148","p2c2yq7cu7k4t5s",465,"130.csv","","null","resources/maskTrios/BT4B.jpg","null","",NA,NA,NA,NA,""
"image-keyboard-response",457,389782,"0.0-3.148-2.148","p2c2yq7cu7k4t5s",465,"130.csv","","null","resources/images/fishbone.png","null","",NA,NA,NA,NA,""
"image-keyboard-response",458,390065,"0.0-3.149-0.149","p2c2yq7cu7k4t5s",465,"130.csv","","281.5","resources/trios/L4T2A2.jpg","38","restless",0.2,0.7,0.5,0.754791690336583,"false"
"image-keyboard-response",459,390471,"0.0-3.149-1.149","p2c2yq7cu7k4t5s",465,"130.csv","","null","resources/maskTrios/BT2B.jpg","null","",NA,NA,NA,NA,""
"image-keyboard-response",460,391678,"0.0-3.149-2.149","p2c2yq7cu7k4t5s",465,"130.csv","","null","resources/images/fishbone.png","null","",NA,NA,NA,NA,""
"image-keyboard-response",461,392063,"0.0-3.150-0.150","p2c2yq7cu7k4t5s",465,"130.csv","","384","resources/trios/L1T4A2.jpg","37","restless",0.2,0.7,0.4,0.885593215515871,"false"
"image-keyboard-response",462,392470,"0.0-3.150-1.150","p2c2yq7cu7k4t5s",465,"130.csv","","null","resources/maskTrios/L1BB.jpg","null","",NA,NA,NA,NA,""
"image-keyboard-response",463,393676,"0.0-3.150-2.150","p2c2yq7cu7k4t5s",465,"130.csv","","null","resources/images/fishbone.png","null","",NA,NA,NA,NA,""
"image-keyboard-response",464,393916,"0.0-3.151-0.151","p2c2yq7cu7k4t5s",465,"130.csv","","239.09999999403954","resources/trios/L1T4A3.jpg","37","restless",0.2,0.7,0.4,0.861270364480047,"false"
"image-keyboard-response",465,394323,"0.0-3.151-1.151","p2c2yq7cu7k4t5s",465,"130.csv","","null","resources/maskTrios/L1BB.jpg","null","",NA,NA,NA,NA,""
"image-keyboard-response",466,395530,"0.0-3.151-2.151","p2c2yq7cu7k4t5s",465,"130.csv","","null","resources/images/fishbone.png","null","",NA,NA,NA,NA,""
"image-keyboard-response",467,395776,"0.0-3.152-0.152","p2c2yq7cu7k4t5s",465,"130.csv","","245.19999998807907","resources/trios/L1T2A3.jpg","39","restless",0.2,0.7,0.4,0.7570226227863,"false"
"image-keyboard-response",468,396183,"0.0-3.152-1.152","p2c2yq7cu7k4t5s",465,"130.csv","","null","resources/maskTrios/BBA3.jpg","null","",NA,NA,NA,NA,""
"image-keyboard-response",469,397389,"0.0-3.152-2.152","p2c2yq7cu7k4t5s",465,"130.csv","","null","resources/images/fishbone.png","null","",NA,NA,NA,NA,""
"image-keyboard-response",470,397626,"0.0-3.153-0.153","p2c2yq7cu7k4t5s",465,"130.csv","","235.30000001192093","resources/trios/L1T2A3.jpg","38","restless",0.2,0.7,0.4,0.968921678844261,"false"
"image-keyboard-response",471,398032,"0.0-3.153-1.153","p2c2yq7cu7k4t5s",465,"130.csv","","null","resources/maskTrios/BT2B.jpg","null","",NA,NA,NA,NA,""
"image-keyboard-response",472,399236,"0.0-3.153-2.153","p2c2yq7cu7k4t5s",465,"130.csv","","null","resources/images/fishbone.png","null","",NA,NA,NA,NA,""
"image-keyboard-response",473,399540,"0.0-3.154-0.154","p2c2yq7cu7k4t5s",465,"130.csv","","302.5","resources/trios/L4T2A3.jpg","37","restless",0.2,0.7,0.4,0.92698843419965,"false"
"image-keyboard-response",474,399943,"0.0-3.154-1.154","p2c2yq7cu7k4t5s",465,"130.csv","","null","resources/maskTrios/L4BB.jpg","null","",NA,NA,NA,NA,""
"image-keyboard-response",475,401150,"0.0-3.154-2.154","p2c2yq7cu7k4t5s",465,"130.csv","","null","resources/images/fishbone.png","null","",NA,NA,NA,NA,""
"image-keyboard-response",476,401321,"0.0-3.155-0.155","p2c2yq7cu7k4t5s",465,"130.csv","","169.59999999403954","resources/trios/L4T2A3.jpg","37","restless",0.2,0.7,0.3,0.158982555654953,"true"
"image-keyboard-response",477,401727,"0.0-3.155-1.155","p2c2yq7cu7k4t5s",465,"130.csv","","null","resources/maskTrios/L4BB.jpg","null","",NA,NA,NA,NA,""
"image-keyboard-response",478,402933,"0.0-3.155-2.155","p2c2yq7cu7k4t5s",465,"130.csv","","null","resources/images/coin2.png","null","",NA,NA,NA,NA,""
"image-keyboard-response",479,403114,"0.0-3.156-0.156","p2c2yq7cu7k4t5s",465,"130.csv","","179.59999999403954","resources/trios/L4T2A2.jpg","37","restless",0.2,0.7,0.3,0.434340710322462,"false"
"image-keyboard-response",480,403521,"0.0-3.156-1.156","p2c2yq7cu7k4t5s",465,"130.csv","","null","resources/maskTrios/L4BB.jpg","null","",NA,NA,NA,NA,""
"image-keyboard-response",481,404727,"0.0-3.156-2.156","p2c2yq7cu7k4t5s",465,"130.csv","","null","resources/images/fishbone.png","null","",NA,NA,NA,NA,""
"image-keyboard-response",482,404973,"0.0-3.157-0.157","p2c2yq7cu7k4t5s",465,"130.csv","","244.90000000596046","resources/trios/L1T2A3.jpg","39","restless",0.2,0.7,0.3,0.610940693946706,"false"
"image-keyboard-response",483,405378,"0.0-3.157-1.157","p2c2yq7cu7k4t5s",465,"130.csv","","null","resources/maskTrios/BBA3.jpg","null","",NA,NA,NA,NA,""
"image-keyboard-response",484,406585,"0.0-3.157-2.157","p2c2yq7cu7k4t5s",465,"130.csv","","null","resources/images/fishbone.png","null","",NA,NA,NA,NA,""
"image-keyboard-response",485,406635,"0.0-3.158-0.158","p2c2yq7cu7k4t5s",465,"130.csv","","48.79999998211861","resources/trios/L1T4A3.jpg","39","restless",0.2,0.7,0.2,0.309546418426884,"false"
"image-keyboard-response",486,407041,"0.0-3.158-1.158","p2c2yq7cu7k4t5s",465,"130.csv","","null","resources/maskTrios/BBA3.jpg","null","",NA,NA,NA,NA,""
"image-keyboard-response",487,408248,"0.0-3.158-2.158","p2c2yq7cu7k4t5s",465,"130.csv","","null","resources/images/fishbone.png","null","",NA,NA,NA,NA,""
"image-keyboard-response",488,408339,"0.0-3.159-0.159","p2c2yq7cu7k4t5s",465,"130.csv","","89.5","resources/trios/L1T2A3.jpg","39","restless",0.2,0.7,0.1,0.0898068285786955,"true"
"image-keyboard-response",489,408745,"0.0-3.159-1.159","p2c2yq7cu7k4t5s",465,"130.csv","","null","resources/maskTrios/BBA3.jpg","null","",NA,NA,NA,NA,""
"image-keyboard-response",490,409951,"0.0-3.159-2.159","p2c2yq7cu7k4t5s",465,"130.csv","","null","resources/images/coin2.png","null","",NA,NA,NA,NA,""
"image-keyboard-response",491,410230,"0.0-3.160-0.160","p2c2yq7cu7k4t5s",465,"130.csv","","277.5","resources/trios/L1T4A3.jpg","39","restless",0.2,0.7,0.1,0.215802239935086,"false"
"image-keyboard-response",492,410636,"0.0-3.160-1.160","p2c2yq7cu7k4t5s",465,"130.csv","","null","resources/maskTrios/BBA3.jpg","null","",NA,NA,NA,NA,""
"image-keyboard-response",493,411837,"0.0-3.160-2.160","p2c2yq7cu7k4t5s",465,"130.csv","","null","resources/images/fishbone.png","null","",NA,NA,NA,NA,""
"image-keyboard-response",494,412114,"0.0-3.161-0.161","p2c2yq7cu7k4t5s",465,"130.csv","","275.30000001192093","resources/trios/L1T2A2.jpg","38","restless",0.2,0.7,0.1,0.833308557266416,"false"
"image-keyboard-response",495,412520,"0.0-3.161-1.161","p2c2yq7cu7k4t5s",465,"130.csv","","null","resources/maskTrios/BT2B.jpg","null","",NA,NA,NA,NA,""
"image-keyboard-response",496,413727,"0.0-3.161-2.161","p2c2yq7cu7k4t5s",465,"130.csv","","null","resources/images/fishbone.png","null","",NA,NA,NA,NA,""
"image-keyboard-response",497,413893,"0.0-3.162-0.162","p2c2yq7cu7k4t5s",465,"130.csv","","165.30000001192093","resources/trios/L4T2A3.jpg","37","restless",0.2,0.7,0.1,0.333959828795985,"false"
"image-keyboard-response",498,414300,"0.0-3.162-1.162","p2c2yq7cu7k4t5s",465,"130.csv","","null","resources/maskTrios/L4BB.jpg","null","",NA,NA,NA,NA,""
"image-keyboard-response",499,415506,"0.0-3.162-2.162","p2c2yq7cu7k4t5s",465,"130.csv","","null","resources/images/fishbone.png","null","",NA,NA,NA,NA,""
"image-keyboard-response",500,415525,"0.0-3.163-0.163","p2c2yq7cu7k4t5s",465,"130.csv","","17.600000023841858","resources/trios/L4T4A2.jpg","37","restless",0.2,0.7,0.1,0.730608114635731,"false"
"image-keyboard-response",501,415931,"0.0-3.163-1.163","p2c2yq7cu7k4t5s",465,"130.csv","","null","resources/maskTrios/L4BB.jpg","null","",NA,NA,NA,NA,""
"image-keyboard-response",502,417138,"0.0-3.163-2.163","p2c2yq7cu7k4t5s",465,"130.csv","","null","resources/images/fishbone.png","null","",NA,NA,NA,NA,""
"image-keyboard-response",503,418001,"0.0-3.164-0.164","p2c2yq7cu7k4t5s",465,"130.csv","","862.1999999880791","resources/trios/L1T4A2.jpg","37","restless",0.2,0.7,0.1,0.346602870199839,"false"
"image-keyboard-response",504,418408,"0.0-3.164-1.164","p2c2yq7cu7k4t5s",465,"130.csv","","null","resources/maskTrios/L1BB.jpg","null","",NA,NA,NA,NA,""
"image-keyboard-response",505,419614,"0.0-3.164-2.164","p2c2yq7cu7k4t5s",465,"130.csv","","null","resources/images/fishbone.png","null","",NA,NA,NA,NA,""
"image-keyboard-response",506,419785,"0.0-3.165-0.165","p2c2yq7cu7k4t5s",465,"130.csv","","169.2999999821186","resources/trios/L4T2A2.jpg","37","restless",0.2,0.7,0.1,0.0284705034006407,"true"
"image-keyboard-response",507,420191,"0.0-3.165-1.165","p2c2yq7cu7k4t5s",465,"130.csv","","null","resources/maskTrios/L4BB.jpg","null","",NA,NA,NA,NA,""
"image-keyboard-response",508,421398,"0.0-3.165-2.165","p2c2yq7cu7k4t5s",465,"130.csv","","null","resources/images/coin2.png","null","",NA,NA,NA,NA,""
"image-keyboard-response",509,421669,"0.0-3.166-0.166","p2c2yq7cu7k4t5s",465,"130.csv","","269.39999997615814","resources/trios/L4T4A2.jpg","37","restless",0.2,0.7,0.1,0.366293278378919,"false"
"image-keyboard-response",510,422076,"0.0-3.166-1.166","p2c2yq7cu7k4t5s",465,"130.csv","","null","resources/maskTrios/L4BB.jpg","null","",NA,NA,NA,NA,""
"image-keyboard-response",511,423282,"0.0-3.166-2.166","p2c2yq7cu7k4t5s",465,"130.csv","","null","resources/images/fishbone.png","null","",NA,NA,NA,NA,""
"image-keyboard-response",512,423658,"0.0-3.167-0.167","p2c2yq7cu7k4t5s",465,"130.csv","","374.7999999821186","resources/trios/L1T4A3.jpg","39","restless",0.2,0.7,0.1,0.364294321303218,"false"
"image-keyboard-response",513,424060,"0.0-3.167-1.167","p2c2yq7cu7k4t5s",465,"130.csv","","null","resources/maskTrios/BBA3.jpg","null","",NA,NA,NA,NA,""
"image-keyboard-response",514,425263,"0.0-3.167-2.167","p2c2yq7cu7k4t5s",465,"130.csv","","null","resources/images/fishbone.png","null","",NA,NA,NA,NA,""
"image-keyboard-response",515,425353,"0.0-3.168-0.168","p2c2yq7cu7k4t5s",465,"130.csv","","88.69999998807907","resources/trios/L4T2A2.jpg","38","restless",0.2,0.8,0.1,0.314788058434109,"true"
"image-keyboard-response",516,425760,"0.0-3.168-1.168","p2c2yq7cu7k4t5s",465,"130.csv","","null","resources/maskTrios/BT2B.jpg","null","",NA,NA,NA,NA,""
"image-keyboard-response",517,426967,"0.0-3.168-2.168","p2c2yq7cu7k4t5s",465,"130.csv","","null","resources/images/coin2.png","null","",NA,NA,NA,NA,""
"image-keyboard-response",518,427132,"0.0-3.169-0.169","p2c2yq7cu7k4t5s",465,"130.csv","","163.69999998807907","resources/trios/L1T2A3.jpg","38","restless",0.2,0.8,0.1,0.847065875008073,"false"
"image-keyboard-response",519,427536,"0.0-3.169-1.169","p2c2yq7cu7k4t5s",465,"130.csv","","null","resources/maskTrios/BT2B.jpg","null","",NA,NA,NA,NA,""
"image-keyboard-response",520,428738,"0.0-3.169-2.169","p2c2yq7cu7k4t5s",465,"130.csv","","null","resources/images/fishbone.png","null","",NA,NA,NA,NA,""
"image-keyboard-response",521,428885,"0.0-3.170-0.170","p2c2yq7cu7k4t5s",465,"130.csv","","146","resources/trios/L1T4A3.jpg","37","restless",0.2,0.8,0.2,0.984586054434295,"false"
"image-keyboard-response",522,429288,"0.0-3.170-1.170","p2c2yq7cu7k4t5s",465,"130.csv","","null","resources/maskTrios/L1BB.jpg","null","",NA,NA,NA,NA,""
"image-keyboard-response",523,430494,"0.0-3.170-2.170","p2c2yq7cu7k4t5s",465,"130.csv","","null","resources/images/fishbone.png","null","",NA,NA,NA,NA,""
"image-keyboard-response",524,430502,"0.0-3.171-0.171","p2c2yq7cu7k4t5s",465,"130.csv","","6.399999976158142","resources/trios/L4T4A3.jpg","39","restless",0.3,0.8,0.3,0.327940988834531,"false"
"image-keyboard-response",525,430903,"0.0-3.171-1.171","p2c2yq7cu7k4t5s",465,"130.csv","","null","resources/maskTrios/BBA3.jpg","null","",NA,NA,NA,NA,""
"image-keyboard-response",526,432110,"0.0-3.171-2.171","p2c2yq7cu7k4t5s",465,"130.csv","","null","resources/images/fishbone.png","null","",NA,NA,NA,NA,""
"image-keyboard-response",527,432223,"0.0-3.172-0.172","p2c2yq7cu7k4t5s",465,"130.csv","","111.59999999403954","resources/trios/L1T4A3.jpg","38","restless",0.4,0.8,0.3,0.983511208006485,"false"
"image-keyboard-response",528,432629,"0.0-3.172-1.172","p2c2yq7cu7k4t5s",465,"130.csv","","null","resources/maskTrios/BT4B.jpg","null","",NA,NA,NA,NA,""
"image-keyboard-response",529,433835,"0.0-3.172-2.172","p2c2yq7cu7k4t5s",465,"130.csv","","null","resources/images/fishbone.png","null","",NA,NA,NA,NA,""
"image-keyboard-response",530,433851,"0.0-3.173-0.173","p2c2yq7cu7k4t5s",465,"130.csv","","14.900000005960464","resources/trios/L4T4A3.jpg","37","restless",0.4,0.8,0.3,0.155892730869112,"true"
"image-keyboard-response",531,434253,"0.0-3.173-1.173","p2c2yq7cu7k4t5s",465,"130.csv","","null","resources/maskTrios/L4BB.jpg","null","",NA,NA,NA,NA,""
"image-keyboard-response",532,435457,"0.0-3.173-2.173","p2c2yq7cu7k4t5s",465,"130.csv","","null","resources/images/coin2.png","null","",NA,NA,NA,NA,""
"image-keyboard-response",533,435634,"0.0-3.174-0.174","p2c2yq7cu7k4t5s",465,"130.csv","","175.19999998807907","resources/trios/L1T4A3.jpg","39","restless",0.4,0.8,0.3,0.215281648055631,"true"
"image-keyboard-response",534,436040,"0.0-3.174-1.174","p2c2yq7cu7k4t5s",465,"130.csv","","null","resources/maskTrios/BBA3.jpg","null","",NA,NA,NA,NA,""
"image-keyboard-response",535,437247,"0.0-3.174-2.174","p2c2yq7cu7k4t5s",465,"130.csv","","null","resources/images/coin2.png","null","",NA,NA,NA,NA,""
"image-keyboard-response",536,437448,"0.0-3.175-0.175","p2c2yq7cu7k4t5s",465,"130.csv","","199.60000002384186","resources/trios/L1T2A2.jpg","38","restless",0.4,0.8,0.3,0.650911286922993,"true"
"image-keyboard-response",537,437851,"0.0-3.175-1.175","p2c2yq7cu7k4t5s",465,"130.csv","","null","resources/maskTrios/BT2B.jpg","null","",NA,NA,NA,NA,""
"image-keyboard-response",538,439058,"0.0-3.175-2.175","p2c2yq7cu7k4t5s",465,"130.csv","","null","resources/images/coin2.png","null","",NA,NA,NA,NA,""
"image-keyboard-response",539,439295,"0.0-3.176-0.176","p2c2yq7cu7k4t5s",465,"130.csv","","236.30000001192093","resources/trios/L1T2A3.jpg","37","restless",0.4,0.7,0.3,0.164148754379131,"true"
"image-keyboard-response",540,439702,"0.0-3.176-1.176","p2c2yq7cu7k4t5s",465,"130.csv","","null","resources/maskTrios/L1BB.jpg","null","",NA,NA,NA,NA,""
"image-keyboard-response",541,440906,"0.0-3.176-2.176","p2c2yq7cu7k4t5s",465,"130.csv","","null","resources/images/coin2.png","null","",NA,NA,NA,NA,""
"image-keyboard-response",542,441095,"0.0-3.177-0.177","p2c2yq7cu7k4t5s",465,"130.csv","","187.69999998807907","resources/trios/L1T2A3.jpg","39","restless",0.5,0.7,0.4,0.256808211003514,"true"
"image-keyboard-response",543,441501,"0.0-3.177-1.177","p2c2yq7cu7k4t5s",465,"130.csv","","null","resources/maskTrios/BBA3.jpg","null","",NA,NA,NA,NA,""
"image-keyboard-response",544,442708,"0.0-3.177-2.177","p2c2yq7cu7k4t5s",465,"130.csv","","null","resources/images/coin2.png","null","",NA,NA,NA,NA,""
"image-keyboard-response",545,442962,"0.0-3.178-0.178","p2c2yq7cu7k4t5s",465,"130.csv","","252.69999998807907","resources/trios/L4T2A3.jpg","38","restless",0.5,0.7,0.4,0.96206416692011,"false"
"image-keyboard-response",546,443369,"0.0-3.178-1.178","p2c2yq7cu7k4t5s",465,"130.csv","","null","resources/maskTrios/BT2B.jpg","null","",NA,NA,NA,NA,""
"image-keyboard-response",547,444575,"0.0-3.178-2.178","p2c2yq7cu7k4t5s",465,"130.csv","","null","resources/images/fishbone.png","null","",NA,NA,NA,NA,""
"image-keyboard-response",548,446088,"0.0-3.179-0.179","p2c2yq7cu7k4t5s",465,"130.csv","","1511.199999988079","resources/trios/L1T2A2.jpg","37","restless",0.5,0.7,0.4,0.551984224835086,"false"
"image-keyboard-response",549,446489,"0.0-3.179-1.179","p2c2yq7cu7k4t5s",465,"130.csv","","null","resources/maskTrios/L1BB.jpg","null","",NA,NA,NA,NA,""
"image-keyboard-response",550,447696,"0.0-3.179-2.179","p2c2yq7cu7k4t5s",465,"130.csv","","null","resources/images/fishbone.png","null","",NA,NA,NA,NA,""
"image-keyboard-response",551,447905,"0.0-3.180-0.180","p2c2yq7cu7k4t5s",465,"130.csv","","208.40000000596046","resources/trios/L1T4A3.jpg","37","restless",0.5,0.7,0.4,0.965786146137582,"false"
"image-keyboard-response",552,448307,"0.0-3.180-1.180","p2c2yq7cu7k4t5s",465,"130.csv","","null","resources/maskTrios/L1BB.jpg","null","",NA,NA,NA,NA,""
"image-keyboard-response",553,449513,"0.0-3.180-2.180","p2c2yq7cu7k4t5s",465,"130.csv","","null","resources/images/fishbone.png","null","",NA,NA,NA,NA,""
"image-keyboard-response",554,449564,"0.0-3.181-0.181","p2c2yq7cu7k4t5s",465,"130.csv","","49.400000005960464","resources/trios/L1T2A3.jpg","37","restless",0.6,0.7,0.4,0.170416807047395,"true"
"image-keyboard-response",555,449965,"0.0-3.181-1.181","p2c2yq7cu7k4t5s",465,"130.csv","","null","resources/maskTrios/L1BB.jpg","null","",NA,NA,NA,NA,""
"image-keyboard-response",556,451168,"0.0-3.181-2.181","p2c2yq7cu7k4t5s",465,"130.csv","","null","resources/images/coin2.png","null","",NA,NA,NA,NA,""
"image-keyboard-response",557,451411,"0.0-3.182-0.182","p2c2yq7cu7k4t5s",465,"130.csv","","241","resources/trios/L4T2A3.jpg","38","restless",0.6,0.7,0.4,0.471479028477356,"true"
"image-keyboard-response",558,451814,"0.0-3.182-1.182","p2c2yq7cu7k4t5s",465,"130.csv","","null","resources/maskTrios/BT2B.jpg","null","",NA,NA,NA,NA,""
"image-keyboard-response",559,453021,"0.0-3.182-2.182","p2c2yq7cu7k4t5s",465,"130.csv","","null","resources/images/coin2.png","null","",NA,NA,NA,NA,""
"image-keyboard-response",560,453291,"0.0-3.183-0.183","p2c2yq7cu7k4t5s",465,"130.csv","","269.10000002384186","resources/trios/L4T4A3.jpg","39","restless",0.6,0.7,0.4,0.169163050995263,"true"
"image-keyboard-response",561,453694,"0.0-3.183-1.183","p2c2yq7cu7k4t5s",465,"130.csv","","null","resources/maskTrios/BBA3.jpg","null","",NA,NA,NA,NA,""
"image-keyboard-response",562,454901,"0.0-3.183-2.183","p2c2yq7cu7k4t5s",465,"130.csv","","null","resources/images/coin2.png","null","",NA,NA,NA,NA,""
"image-keyboard-response",563,455169,"0.0-3.184-0.184","p2c2yq7cu7k4t5s",465,"130.csv","","267.5","resources/trios/L4T4A2.jpg","38","restless",0.6,0.7,0.4,0.408046797938791,"true"
"image-keyboard-response",564,455576,"0.0-3.184-1.184","p2c2yq7cu7k4t5s",465,"130.csv","","null","resources/maskTrios/BT4B.jpg","null","",NA,NA,NA,NA,""
"image-keyboard-response",565,456783,"0.0-3.184-2.184","p2c2yq7cu7k4t5s",465,"130.csv","","null","resources/images/coin2.png","null","",NA,NA,NA,NA,""
"image-keyboard-response",566,457052,"0.0-3.185-0.185","p2c2yq7cu7k4t5s",465,"130.csv","","268.19999998807907","resources/trios/L1T2A3.jpg","37","restless",0.6,0.6,0.4,0.839043453511483,"false"
"image-keyboard-response",567,457454,"0.0-3.185-1.185","p2c2yq7cu7k4t5s",465,"130.csv","","null","resources/maskTrios/L1BB.jpg","null","",NA,NA,NA,NA,""
"image-keyboard-response",568,458657,"0.0-3.185-2.185","p2c2yq7cu7k4t5s",465,"130.csv","","null","resources/images/fishbone.png","null","",NA,NA,NA,NA,""
"image-keyboard-response",569,459188,"0.0-3.186-0.186","p2c2yq7cu7k4t5s",465,"130.csv","","529.8000000119209","resources/trios/L1T4A2.jpg","38","restless",0.5,0.6,0.4,0.836818742168115,"false"
"image-keyboard-response",570,459595,"0.0-3.186-1.186","p2c2yq7cu7k4t5s",465,"130.csv","","null","resources/maskTrios/BT4B.jpg","null","",NA,NA,NA,NA,""
"image-keyboard-response",571,460801,"0.0-3.186-2.186","p2c2yq7cu7k4t5s",465,"130.csv","","null","resources/images/fishbone.png","null","",NA,NA,NA,NA,""
"image-keyboard-response",572,460956,"0.0-3.187-0.187","p2c2yq7cu7k4t5s",465,"130.csv","","154.10000002384186","resources/trios/L4T4A3.jpg","39","restless",0.5,0.5,0.4,0.212755227982697,"true"
"image-keyboard-response",573,461362,"0.0-3.187-1.187","p2c2yq7cu7k4t5s",465,"130.csv","","null","resources/maskTrios/BBA3.jpg","null","",NA,NA,NA,NA,""
"image-keyboard-response",574,462569,"0.0-3.187-2.187","p2c2yq7cu7k4t5s",465,"130.csv","","null","resources/images/coin2.png","null","",NA,NA,NA,NA,""
"image-keyboard-response",575,462893,"0.0-3.188-0.188","p2c2yq7cu7k4t5s",465,"130.csv","","322.69999998807907","resources/trios/L4T4A2.jpg","38","restless",0.5,0.5,0.4,0.0371972135611198,"true"
"image-keyboard-response",576,463300,"0.0-3.188-1.188","p2c2yq7cu7k4t5s",465,"130.csv","","null","resources/maskTrios/BT4B.jpg","null","",NA,NA,NA,NA,""
"image-keyboard-response",577,464507,"0.0-3.188-2.188","p2c2yq7cu7k4t5s",465,"130.csv","","null","resources/images/coin2.png","null","",NA,NA,NA,NA,""
"image-keyboard-response",578,464793,"0.0-3.189-0.189","p2c2yq7cu7k4t5s",465,"130.csv","","284.7999999821186","resources/trios/L1T4A3.jpg","39","restless",0.5,0.5,0.5,0.354402912036681,"true"
"image-keyboard-response",579,465200,"0.0-3.189-1.189","p2c2yq7cu7k4t5s",465,"130.csv","","null","resources/maskTrios/BBA3.jpg","null","",NA,NA,NA,NA,""
"image-keyboard-response",580,466406,"0.0-3.189-2.189","p2c2yq7cu7k4t5s",465,"130.csv","","null","resources/images/coin2.png","null","",NA,NA,NA,NA,""
"image-keyboard-response",581,466717,"0.0-3.190-0.190","p2c2yq7cu7k4t5s",465,"130.csv","","309.40000000596046","resources/trios/L1T2A2.jpg","38","restless",0.5,0.5,0.5,0.728433703777022,"false"
"image-keyboard-response",582,467124,"0.0-3.190-1.190","p2c2yq7cu7k4t5s",465,"130.csv","","null","resources/maskTrios/BT2B.jpg","null","",NA,NA,NA,NA,""
"image-keyboard-response",583,468330,"0.0-3.190-2.190","p2c2yq7cu7k4t5s",465,"130.csv","","null","resources/images/fishbone.png","null","",NA,NA,NA,NA,""
"image-keyboard-response",584,468593,"0.0-3.191-0.191","p2c2yq7cu7k4t5s",465,"130.csv","","260.90000000596046","resources/trios/L1T4A3.jpg","39","restless",0.5,0.5,0.5,0.0403551989371067,"true"
"image-keyboard-response",585,468997,"0.0-3.191-1.191","p2c2yq7cu7k4t5s",465,"130.csv","","null","resources/maskTrios/BBA3.jpg","null","",NA,NA,NA,NA,""
"image-keyboard-response",586,470200,"0.0-3.191-2.191","p2c2yq7cu7k4t5s",465,"130.csv","","null","resources/images/coin2.png","null","",NA,NA,NA,NA,""
"image-keyboard-response",587,470677,"0.0-3.192-0.192","p2c2yq7cu7k4t5s",465,"130.csv","","475.7999999821186","resources/trios/L1T4A2.jpg","38","restless",0.5,0.4,0.6,0.502028934965696,"false"
"image-keyboard-response",588,471084,"0.0-3.192-1.192","p2c2yq7cu7k4t5s",465,"130.csv","","null","resources/maskTrios/BT4B.jpg","null","",NA,NA,NA,NA,""
"image-keyboard-response",589,472290,"0.0-3.192-2.192","p2c2yq7cu7k4t5s",465,"130.csv","","null","resources/images/fishbone.png","null","",NA,NA,NA,NA,""
"image-keyboard-response",590,472578,"0.0-3.193-0.193","p2c2yq7cu7k4t5s",465,"130.csv","","286.5","resources/trios/L4T2A2.jpg","39","restless",0.5,0.4,0.6,0.998142939873289,"false"
"image-keyboard-response",591,472980,"0.0-3.193-1.193","p2c2yq7cu7k4t5s",465,"130.csv","","null","resources/maskTrios/BBA2.jpg","null","",NA,NA,NA,NA,""
"image-keyboard-response",592,474187,"0.0-3.193-2.193","p2c2yq7cu7k4t5s",465,"130.csv","","null","resources/images/fishbone.png","null","",NA,NA,NA,NA,""
"image-keyboard-response",593,474497,"0.0-3.194-0.194","p2c2yq7cu7k4t5s",465,"130.csv","","309.10000002384186","resources/trios/L4T4A3.jpg","38","restless",0.5,0.4,0.7,0.292949732842497,"true"
"image-keyboard-response",594,474904,"0.0-3.194-1.194","p2c2yq7cu7k4t5s",465,"130.csv","","null","resources/maskTrios/BT4B.jpg","null","",NA,NA,NA,NA,""
"image-keyboard-response",595,476110,"0.0-3.194-2.194","p2c2yq7cu7k4t5s",465,"130.csv","","null","resources/images/coin2.png","null","",NA,NA,NA,NA,""
"image-keyboard-response",596,476444,"0.0-3.195-0.195","p2c2yq7cu7k4t5s",465,"130.csv","","332.5","resources/trios/L1T2A3.jpg","39","restless",0.5,0.4,0.7,0.885037973777284,"false"
"image-keyboard-response",597,476847,"0.0-3.195-1.195","p2c2yq7cu7k4t5s",465,"130.csv","","null","resources/maskTrios/BBA3.jpg","null","",NA,NA,NA,NA,""
"image-keyboard-response",598,478052,"0.0-3.195-2.195","p2c2yq7cu7k4t5s",465,"130.csv","","null","resources/images/fishbone.png","null","",NA,NA,NA,NA,""
"image-keyboard-response",599,478301,"0.0-3.196-0.196","p2c2yq7cu7k4t5s",465,"130.csv","","248.09999999403954","resources/trios/L1T2A2.jpg","38","restless",0.5,0.4,0.7,0.477921567500041,"false"
"image-keyboard-response",600,478707,"0.0-3.196-1.196","p2c2yq7cu7k4t5s",465,"130.csv","","null","resources/maskTrios/BT2B.jpg","null","",NA,NA,NA,NA,""
"image-keyboard-response",601,479912,"0.0-3.196-2.196","p2c2yq7cu7k4t5s",465,"130.csv","","null","resources/images/fishbone.png","null","",NA,NA,NA,NA,""
"image-keyboard-response",602,480186,"0.0-3.197-0.197","p2c2yq7cu7k4t5s",465,"130.csv","","273.40000000596046","resources/trios/L1T4A2.jpg","38","restless",0.5,0.4,0.7,0.251708429213156,"true"
"image-keyboard-response",603,480593,"0.0-3.197-1.197","p2c2yq7cu7k4t5s",465,"130.csv","","null","resources/maskTrios/BT4B.jpg","null","",NA,NA,NA,NA,""
"image-keyboard-response",604,481797,"0.0-3.197-2.197","p2c2yq7cu7k4t5s",465,"130.csv","","null","resources/images/coin2.png","null","",NA,NA,NA,NA,""
"image-keyboard-response",605,482068,"0.0-3.198-0.198","p2c2yq7cu7k4t5s",465,"130.csv","","269.40000000596046","resources/trios/L4T4A2.jpg","37","restless",0.5,0.4,0.7,0.223279067544166,"true"
"image-keyboard-response",606,482474,"0.0-3.198-1.198","p2c2yq7cu7k4t5s",465,"130.csv","","null","resources/maskTrios/L4BB.jpg","null","",NA,NA,NA,NA,""
