"trial_type","trial_index","time_elapsed","internal_node_id","subject","participantCode","walkNumber","success","rt","stimulus","key_press","test_part","leftProb","midProb","rightProb","generatedNum","correct"
"pavlovia",0,1154,"0.0-0.0","hoopxtschbda6wk",321,"141.csv","","","","","",NA,NA,NA,NA,""
"fullscreen",1,4474,"0.0-1.0","hoopxtschbda6wk",321,"141.csv","true","","","","",NA,NA,NA,NA,""
"html-keyboard-response",2,13843,"0.0-2.0-0.0","hoopxtschbda6wk",321,"141.csv","","9367.70000000298","<p><font size='6'>Arrrgh!</p></font><p>Can you be the best pirate? Try to find lots of gold! But beware, some islands have more gold than others, and over time, the island with the most gold may change. Can YOU figure it out? </p><font size='6'>GOOD LUCK, CAPTAIN!!!</font><p>Press any key to begin</p>","32","",NA,NA,NA,NA,""
"image-keyboard-response",3,16850,"0.0-2.0-1.0","hoopxtschbda6wk",321,"141.csv","","null","resources/image_sets/111.png","null","",NA,NA,NA,NA,""
"image-keyboard-response",4,25533,"0.0-2.0-2.0","hoopxtschbda6wk",321,"141.csv","","8681.70000000298","resources/image_sets/left_highlight.png","37","",NA,NA,NA,NA,""
"image-keyboard-response",5,26688,"0.0-2.0-3.0","hoopxtschbda6wk",321,"141.csv","","1152.6000000089407","resources/image_sets/mid_highlight.png","38","",NA,NA,NA,NA,""
"image-keyboard-response",6,27060,"0.0-2.0-4.0","hoopxtschbda6wk",321,"141.csv","","370.8999999910593","resources/image_sets/right_highlight.png","39","",NA,NA,NA,NA,""
"image-keyboard-response",7,37330,"0.0-2.0-5.0","hoopxtschbda6wk",321,"141.csv","","10269.09999999404","resources/image_sets/111.png","13","",NA,NA,NA,NA,""
"image-keyboard-response",8,40415,"0.0-2.0-6.0","hoopxtschbda6wk",321,"141.csv","","3083.5999999940395","resources/images/coin2.png","13","",NA,NA,NA,NA,""
"image-keyboard-response",9,41970,"0.0-2.0-7.0","hoopxtschbda6wk",321,"141.csv","","1554","resources/images/fishbone.png","13","",NA,NA,NA,NA,""
"html-keyboard-response",10,49284,"0.0-2.0-8.0","hoopxtschbda6wk",321,"141.csv","","7312.0999999940395","<p>Your first journey will be a long one, but you will get a well deserved break at the end</p><p>After the break you will have four more journeys, but each will be much shorter than the first, and you will have breaks in between each</p><p>Press Enter to begin</p>","13","",NA,NA,NA,NA,""
"image-keyboard-response",11,50755,"0.0-3.0-0.0","hoopxtschbda6wk",321,"141.csv","","1469.5999999940395","resources/trios/L4T4A3.jpg","38","restless",0.3,0.7,0.9,0.439718218233049,"true"
"image-keyboard-response",12,51168,"0.0-3.0-1.0","hoopxtschbda6wk",321,"141.csv","","null","resources/maskTrios/BT4B.jpg","null","",NA,NA,NA,NA,""
"image-keyboard-response",13,52372,"0.0-3.0-2.0","hoopxtschbda6wk",321,"141.csv","","null","resources/images/coin2.png","null","",NA,NA,NA,NA,""
"image-keyboard-response",14,54275,"0.0-3.1-0.1","hoopxtschbda6wk",321,"141.csv","","1900.699999988079","resources/trios/L2T4A2.jpg","37","restless",0.3,0.7,0.9,0.265149068933128,"true"
"image-keyboard-response",15,54678,"0.0-3.1-1.1","hoopxtschbda6wk",321,"141.csv","","null","resources/maskTrios/L2BB.jpg","null","",NA,NA,NA,NA,""
"image-keyboard-response",16,55880,"0.0-3.1-2.1","hoopxtschbda6wk",321,"141.csv","","null","resources/images/coin2.png","null","",NA,NA,NA,NA,""
"image-keyboard-response",17,57735,"0.0-3.2-0.2","hoopxtschbda6wk",321,"141.csv","","1852.7000000029802","resources/trios/L4T4A2.jpg","39","restless",0.4,0.7,0.9,0.950708809703978,"false"
"image-keyboard-response",18,58141,"0.0-3.2-1.2","hoopxtschbda6wk",321,"141.csv","","null","resources/maskTrios/BBA2.jpg","null","",NA,NA,NA,NA,""
"image-keyboard-response",19,59344,"0.0-3.2-2.2","hoopxtschbda6wk",321,"141.csv","","null","resources/images/fishbone.png","null","",NA,NA,NA,NA,""
"image-keyboard-response",20,60304,"0.0-3.3-0.3","hoopxtschbda6wk",321,"141.csv","","956.7999999970198","resources/trios/L2T4A2.jpg","38","restless",0.4,0.6,0.8,0.115716967756567,"true"
"image-keyboard-response",21,60710,"0.0-3.3-1.3","hoopxtschbda6wk",321,"141.csv","","null","resources/maskTrios/BT4B.jpg","null","",NA,NA,NA,NA,""
"image-keyboard-response",22,61917,"0.0-3.3-2.3","hoopxtschbda6wk",321,"141.csv","","null","resources/images/coin2.png","null","",NA,NA,NA,NA,""
"image-keyboard-response",23,64586,"0.0-3.4-0.4","hoopxtschbda6wk",321,"141.csv","","2667.5999999940395","resources/trios/L4T4A2.jpg","37","restless",0.4,0.6,0.8,0.978197073213128,"false"
"image-keyboard-response",24,64993,"0.0-3.4-1.4","hoopxtschbda6wk",321,"141.csv","","null","resources/maskTrios/L4BB.jpg","null","",NA,NA,NA,NA,""
"image-keyboard-response",25,66199,"0.0-3.4-2.4","hoopxtschbda6wk",321,"141.csv","","null","resources/images/fishbone.png","null","",NA,NA,NA,NA,""
"image-keyboard-response",26,67155,"0.0-3.5-0.5","hoopxtschbda6wk",321,"141.csv","","954","resources/trios/L4T4A3.jpg","38","restless",0.4,0.6,0.8,0.894568086418476,"false"
"image-keyboard-response",27,67561,"0.0-3.5-1.5","hoopxtschbda6wk",321,"141.csv","","null","resources/maskTrios/BT4B.jpg","null","",NA,NA,NA,NA,""
"image-keyboard-response",28,68768,"0.0-3.5-2.5","hoopxtschbda6wk",321,"141.csv","","null","resources/images/fishbone.png","null","",NA,NA,NA,NA,""
"image-keyboard-response",29,69313,"0.0-3.6-0.6","hoopxtschbda6wk",321,"141.csv","","544.4000000059605","resources/trios/L4T4A2.jpg","39","restless",0.4,0.6,0.8,0.584793492327725,"true"
"image-keyboard-response",30,69718,"0.0-3.6-1.6","hoopxtschbda6wk",321,"141.csv","","null","resources/maskTrios/BBA2.jpg","null","",NA,NA,NA,NA,""
"image-keyboard-response",31,70925,"0.0-3.6-2.6","hoopxtschbda6wk",321,"141.csv","","null","resources/images/coin2.png","null","",NA,NA,NA,NA,""
"image-keyboard-response",32,72421,"0.0-3.7-0.7","hoopxtschbda6wk",321,"141.csv","","1495.1000000089407","resources/trios/L2T1A2.jpg","37","restless",0.4,0.6,0.8,0.703961595663375,"false"
"image-keyboard-response",33,72828,"0.0-3.7-1.7","hoopxtschbda6wk",321,"141.csv","","null","resources/maskTrios/L2BB.jpg","null","",NA,NA,NA,NA,""
"image-keyboard-response",34,74034,"0.0-3.7-2.7","hoopxtschbda6wk",321,"141.csv","","null","resources/images/fishbone.png","null","",NA,NA,NA,NA,""
"image-keyboard-response",35,76141,"0.0-3.8-0.8","hoopxtschbda6wk",321,"141.csv","","2105.2999999970198","resources/trios/L4T4A3.jpg","37","restless",0.4,0.6,0.8,0.316828483019543,"true"
"image-keyboard-response",36,76548,"0.0-3.8-1.8","hoopxtschbda6wk",321,"141.csv","","null","resources/maskTrios/L4BB.jpg","null","",NA,NA,NA,NA,""
"image-keyboard-response",37,77755,"0.0-3.8-2.8","hoopxtschbda6wk",321,"141.csv","","null","resources/images/coin2.png","null","",NA,NA,NA,NA,""
"image-keyboard-response",38,78345,"0.0-3.9-0.9","hoopxtschbda6wk",321,"141.csv","","589","resources/trios/L4T4A3.jpg","38","restless",0.5,0.6,0.8,0.524586304761203,"true"
"image-keyboard-response",39,78747,"0.0-3.9-1.9","hoopxtschbda6wk",321,"141.csv","","null","resources/maskTrios/BT4B.jpg","null","",NA,NA,NA,NA,""
"image-keyboard-response",40,79952,"0.0-3.9-2.9","hoopxtschbda6wk",321,"141.csv","","null","resources/images/coin2.png","null","",NA,NA,NA,NA,""
"image-keyboard-response",41,80335,"0.0-3.10-0.10","hoopxtschbda6wk",321,"141.csv","","381.29999999701977","resources/trios/L2T4A3.jpg","39","restless",0.5,0.6,0.8,0.276362219927863,"true"
"image-keyboard-response",42,80739,"0.0-3.10-1.10","hoopxtschbda6wk",321,"141.csv","","null","resources/maskTrios/BBA3.jpg","null","",NA,NA,NA,NA,""
"image-keyboard-response",43,81943,"0.0-3.10-2.10","hoopxtschbda6wk",321,"141.csv","","null","resources/images/coin2.png","null","",NA,NA,NA,NA,""
"image-keyboard-response",44,82307,"0.0-3.11-0.11","hoopxtschbda6wk",321,"141.csv","","362.5","resources/trios/L4T1A3.jpg","37","restless",0.5,0.6,0.8,0.901814686246405,"false"
"image-keyboard-response",45,82713,"0.0-3.11-1.11","hoopxtschbda6wk",321,"141.csv","","null","resources/maskTrios/L4BB.jpg","null","",NA,NA,NA,NA,""
"image-keyboard-response",46,83916,"0.0-3.11-2.11","hoopxtschbda6wk",321,"141.csv","","null","resources/images/fishbone.png","null","",NA,NA,NA,NA,""
"image-keyboard-response",47,85692,"0.0-3.12-0.12","hoopxtschbda6wk",321,"141.csv","","1773.9000000059605","resources/trios/L4T4A3.jpg","38","restless",0.4,0.6,0.8,0.126886111292717,"true"
"image-keyboard-response",48,86098,"0.0-3.12-1.12","hoopxtschbda6wk",321,"141.csv","","null","resources/maskTrios/BT4B.jpg","null","",NA,NA,NA,NA,""
"image-keyboard-response",49,87304,"0.0-3.12-2.12","hoopxtschbda6wk",321,"141.csv","","null","resources/images/coin2.png","null","",NA,NA,NA,NA,""
"image-keyboard-response",50,88067,"0.0-3.13-0.13","hoopxtschbda6wk",321,"141.csv","","761.2999999970198","resources/trios/L2T1A2.jpg","39","restless",0.4,0.6,0.8,0.849712260533126,"false"
"image-keyboard-response",51,88468,"0.0-3.13-1.13","hoopxtschbda6wk",321,"141.csv","","null","resources/maskTrios/BBA2.jpg","null","",NA,NA,NA,NA,""
"image-keyboard-response",52,89675,"0.0-3.13-2.13","hoopxtschbda6wk",321,"141.csv","","null","resources/images/fishbone.png","null","",NA,NA,NA,NA,""
"image-keyboard-response",53,90233,"0.0-3.14-0.14","hoopxtschbda6wk",321,"141.csv","","557.0999999940395","resources/trios/L2T1A3.jpg","37","restless",0.4,0.6,0.8,0.83955619034417,"false"
"image-keyboard-response",54,90640,"0.0-3.14-1.14","hoopxtschbda6wk",321,"141.csv","","null","resources/maskTrios/L2BB.jpg","null","",NA,NA,NA,NA,""
"image-keyboard-response",55,91843,"0.0-3.14-2.14","hoopxtschbda6wk",321,"141.csv","","null","resources/images/fishbone.png","null","",NA,NA,NA,NA,""
"image-keyboard-response",56,92129,"0.0-3.15-0.15","hoopxtschbda6wk",321,"141.csv","","284.29999999701977","resources/trios/L2T1A2.jpg","38","restless",0.4,0.6,0.8,0.807024584141829,"false"
"image-keyboard-response",57,92536,"0.0-3.15-1.15","hoopxtschbda6wk",321,"141.csv","","null","resources/maskTrios/BT1B.jpg","null","",NA,NA,NA,NA,""
"image-keyboard-response",58,93742,"0.0-3.15-2.15","hoopxtschbda6wk",321,"141.csv","","null","resources/images/fishbone.png","null","",NA,NA,NA,NA,""
"image-keyboard-response",59,94002,"0.0-3.16-0.16","hoopxtschbda6wk",321,"141.csv","","258.20000000298023","resources/trios/L2T4A2.jpg","38","restless",0.4,0.6,0.7,0.842217653163227,"false"
"image-keyboard-response",60,94407,"0.0-3.16-1.16","hoopxtschbda6wk",321,"141.csv","","null","resources/maskTrios/BT4B.jpg","null","",NA,NA,NA,NA,""
"image-keyboard-response",61,95614,"0.0-3.16-2.16","hoopxtschbda6wk",321,"141.csv","","null","resources/images/fishbone.png","null","",NA,NA,NA,NA,""
"image-keyboard-response",62,96073,"0.0-3.17-0.17","hoopxtschbda6wk",321,"141.csv","","457.70000000298023","resources/trios/L2T4A3.jpg","38","restless",0.4,0.6,0.7,0.928179343763919,"false"
"image-keyboard-response",63,96478,"0.0-3.17-1.17","hoopxtschbda6wk",321,"141.csv","","null","resources/maskTrios/BT4B.jpg","null","",NA,NA,NA,NA,""
"image-keyboard-response",64,97684,"0.0-3.17-2.17","hoopxtschbda6wk",321,"141.csv","","null","resources/images/fishbone.png","null","",NA,NA,NA,NA,""
"image-keyboard-response",65,98378,"0.0-3.18-0.18","hoopxtschbda6wk",321,"141.csv","","692.0999999940395","resources/trios/L4T4A3.jpg","37","restless",0.4,0.6,0.7,0.643655702069742,"false"
"image-keyboard-response",66,98780,"0.0-3.18-1.18","hoopxtschbda6wk",321,"141.csv","","null","resources/maskTrios/L4BB.jpg","null","",NA,NA,NA,NA,""
"image-keyboard-response",67,99986,"0.0-3.18-2.18","hoopxtschbda6wk",321,"141.csv","","null","resources/images/fishbone.png","null","",NA,NA,NA,NA,""
"image-keyboard-response",68,100570,"0.0-3.19-0.19","hoopxtschbda6wk",321,"141.csv","","582.3999999910593","resources/trios/L4T4A3.jpg","39","restless",0.4,0.6,0.7,0.973133714319619,"false"
"image-keyboard-response",69,100977,"0.0-3.19-1.19","hoopxtschbda6wk",321,"141.csv","","null","resources/maskTrios/BBA3.jpg","null","",NA,NA,NA,NA,""
"image-keyboard-response",70,102183,"0.0-3.19-2.19","hoopxtschbda6wk",321,"141.csv","","null","resources/images/fishbone.png","null","",NA,NA,NA,NA,""
"image-keyboard-response",71,102615,"0.0-3.20-0.20","hoopxtschbda6wk",321,"141.csv","","430.20000000298023","resources/trios/L4T1A3.jpg","38","restless",0.4,0.6,0.6,0.159047615104721,"true"
"image-keyboard-response",72,103019,"0.0-3.20-1.20","hoopxtschbda6wk",321,"141.csv","","null","resources/maskTrios/BT1B.jpg","null","",NA,NA,NA,NA,""
"image-keyboard-response",73,104223,"0.0-3.20-2.20","hoopxtschbda6wk",321,"141.csv","","null","resources/images/coin2.png","null","",NA,NA,NA,NA,""
"image-keyboard-response",74,105718,"0.0-3.21-0.21","hoopxtschbda6wk",321,"141.csv","","1494","resources/trios/L4T1A2.jpg","39","restless",0.4,0.6,0.6,0.462537905651822,"true"
"image-keyboard-response",75,106125,"0.0-3.21-1.21","hoopxtschbda6wk",321,"141.csv","","null","resources/maskTrios/BBA2.jpg","null","",NA,NA,NA,NA,""
"image-keyboard-response",76,107331,"0.0-3.21-2.21","hoopxtschbda6wk",321,"141.csv","","null","resources/images/coin2.png","null","",NA,NA,NA,NA,""
"image-keyboard-response",77,108409,"0.0-3.22-0.22","hoopxtschbda6wk",321,"141.csv","","1076.0999999940395","resources/trios/L2T4A2.jpg","37","restless",0.4,0.6,0.5,0.0943702263092543,"true"
"image-keyboard-response",78,108814,"0.0-3.22-1.22","hoopxtschbda6wk",321,"141.csv","","null","resources/maskTrios/L2BB.jpg","null","",NA,NA,NA,NA,""
"image-keyboard-response",79,110019,"0.0-3.22-2.22","hoopxtschbda6wk",321,"141.csv","","null","resources/images/coin2.png","null","",NA,NA,NA,NA,""
"image-keyboard-response",80,111937,"0.0-3.23-0.23","hoopxtschbda6wk",321,"141.csv","","1916.5999999940395","resources/trios/L2T4A2.jpg","38","restless",0.4,0.6,0.5,0.383088446960137,"true"
"image-keyboard-response",81,112343,"0.0-3.23-1.23","hoopxtschbda6wk",321,"141.csv","","null","resources/maskTrios/BT4B.jpg","null","",NA,NA,NA,NA,""
"image-keyboard-response",82,113550,"0.0-3.23-2.23","hoopxtschbda6wk",321,"141.csv","","null","resources/images/coin2.png","null","",NA,NA,NA,NA,""
"image-keyboard-response",83,114019,"0.0-3.24-0.24","hoopxtschbda6wk",321,"141.csv","","467.79999999701977","resources/trios/L2T1A2.jpg","39","restless",0.4,0.6,0.4,0.974169659672219,"false"
"image-keyboard-response",84,114423,"0.0-3.24-1.24","hoopxtschbda6wk",321,"141.csv","","null","resources/maskTrios/BBA2.jpg","null","",NA,NA,NA,NA,""
"image-keyboard-response",85,115628,"0.0-3.24-2.24","hoopxtschbda6wk",321,"141.csv","","null","resources/images/fishbone.png","null","",NA,NA,NA,NA,""
"image-keyboard-response",86,116721,"0.0-3.25-0.25","hoopxtschbda6wk",321,"141.csv","","1091.9000000059605","resources/trios/L4T1A3.jpg","37","restless",0.4,0.6,0.4,0.4498951274926,"false"
"image-keyboard-response",87,117128,"0.0-3.25-1.25","hoopxtschbda6wk",321,"141.csv","","null","resources/maskTrios/L4BB.jpg","null","",NA,NA,NA,NA,""
"image-keyboard-response",88,118334,"0.0-3.25-2.25","hoopxtschbda6wk",321,"141.csv","","null","resources/images/fishbone.png","null","",NA,NA,NA,NA,""
"image-keyboard-response",89,118740,"0.0-3.26-0.26","hoopxtschbda6wk",321,"141.csv","","404.6000000089407","resources/trios/L4T1A2.jpg","38","restless",0.3,0.6,0.4,0.886944761967696,"false"
"image-keyboard-response",90,119147,"0.0-3.26-1.26","hoopxtschbda6wk",321,"141.csv","","null","resources/maskTrios/BT1B.jpg","null","",NA,NA,NA,NA,""
"image-keyboard-response",91,120351,"0.0-3.26-2.26","hoopxtschbda6wk",321,"141.csv","","null","resources/images/fishbone.png","null","",NA,NA,NA,NA,""
"image-keyboard-response",92,121010,"0.0-3.27-0.27","hoopxtschbda6wk",321,"141.csv","","657.6000000089407","resources/trios/L2T4A2.jpg","38","restless",0.3,0.6,0.4,0.755447937634957,"false"
"image-keyboard-response",93,121413,"0.0-3.27-1.27","hoopxtschbda6wk",321,"141.csv","","null","resources/maskTrios/BT4B.jpg","null","",NA,NA,NA,NA,""
"image-keyboard-response",94,122619,"0.0-3.27-2.27","hoopxtschbda6wk",321,"141.csv","","null","resources/images/fishbone.png","null","",NA,NA,NA,NA,""
"image-keyboard-response",95,123127,"0.0-3.28-0.28","hoopxtschbda6wk",321,"141.csv","","506","resources/trios/L2T4A2.jpg","37","restless",0.3,0.5,0.4,0.258299847781631,"true"
"image-keyboard-response",96,123533,"0.0-3.28-1.28","hoopxtschbda6wk",321,"141.csv","","null","resources/maskTrios/L2BB.jpg","null","",NA,NA,NA,NA,""
"image-keyboard-response",97,124740,"0.0-3.28-2.28","hoopxtschbda6wk",321,"141.csv","","null","resources/images/coin2.png","null","",NA,NA,NA,NA,""
"image-keyboard-response",98,125274,"0.0-3.29-0.29","hoopxtschbda6wk",321,"141.csv","","532.2999999970198","resources/trios/L4T4A3.jpg","39","restless",0.2,0.5,0.4,0.539558986384884,"false"
"image-keyboard-response",99,125679,"0.0-3.29-1.29","hoopxtschbda6wk",321,"141.csv","","null","resources/maskTrios/BBA3.jpg","null","",NA,NA,NA,NA,""
"image-keyboard-response",100,126885,"0.0-3.29-2.29","hoopxtschbda6wk",321,"141.csv","","null","resources/images/fishbone.png","null","",NA,NA,NA,NA,""
"image-keyboard-response",101,127226,"0.0-3.30-0.30","hoopxtschbda6wk",321,"141.csv","","338.90000000596046","resources/trios/L2T1A3.jpg","38","restless",0.2,0.5,0.4,0.968818025683179,"false"
"image-keyboard-response",102,127632,"0.0-3.30-1.30","hoopxtschbda6wk",321,"141.csv","","null","resources/maskTrios/BT1B.jpg","null","",NA,NA,NA,NA,""
"image-keyboard-response",103,128839,"0.0-3.30-2.30","hoopxtschbda6wk",321,"141.csv","","null","resources/images/fishbone.png","null","",NA,NA,NA,NA,""
"image-keyboard-response",104,129094,"0.0-3.31-0.31","hoopxtschbda6wk",321,"141.csv","","253.40000000596046","resources/trios/L2T4A2.jpg","37","restless",0.2,0.6,0.3,0.870426845267192,"false"
"image-keyboard-response",105,129500,"0.0-3.31-1.31","hoopxtschbda6wk",321,"141.csv","","null","resources/maskTrios/L2BB.jpg","null","",NA,NA,NA,NA,""
"image-keyboard-response",106,130703,"0.0-3.31-2.31","hoopxtschbda6wk",321,"141.csv","","null","resources/images/fishbone.png","null","",NA,NA,NA,NA,""
"image-keyboard-response",107,131148,"0.0-3.32-0.32","hoopxtschbda6wk",321,"141.csv","","442.79999999701977","resources/trios/L4T1A2.jpg","38","restless",0.2,0.6,0.2,0.104001846824912,"true"
"image-keyboard-response",108,131552,"0.0-3.32-1.32","hoopxtschbda6wk",321,"141.csv","","null","resources/maskTrios/BT1B.jpg","null","",NA,NA,NA,NA,""
"image-keyboard-response",109,132755,"0.0-3.32-2.32","hoopxtschbda6wk",321,"141.csv","","null","resources/images/coin2.png","null","",NA,NA,NA,NA,""
"image-keyboard-response",110,133057,"0.0-3.33-0.33","hoopxtschbda6wk",321,"141.csv","","300","resources/trios/L4T4A3.jpg","39","restless",0.2,0.6,0.2,0.423888502305919,"false"
"image-keyboard-response",111,133463,"0.0-3.33-1.33","hoopxtschbda6wk",321,"141.csv","","null","resources/maskTrios/BBA3.jpg","null","",NA,NA,NA,NA,""
"image-keyboard-response",112,134667,"0.0-3.33-2.33","hoopxtschbda6wk",321,"141.csv","","null","resources/images/fishbone.png","null","",NA,NA,NA,NA,""
"image-keyboard-response",113,134937,"0.0-3.34-0.34","hoopxtschbda6wk",321,"141.csv","","268.29999999701977","resources/trios/L2T4A2.jpg","37","restless",0.2,0.6,0.2,0.995996498330815,"false"
"image-keyboard-response",114,135343,"0.0-3.34-1.34","hoopxtschbda6wk",321,"141.csv","","null","resources/maskTrios/L2BB.jpg","null","",NA,NA,NA,NA,""
"image-keyboard-response",115,136550,"0.0-3.34-2.34","hoopxtschbda6wk",321,"141.csv","","null","resources/images/fishbone.png","null","",NA,NA,NA,NA,""
"image-keyboard-response",116,137218,"0.0-3.35-0.35","hoopxtschbda6wk",321,"141.csv","","666.5","resources/trios/L4T4A2.jpg","37","restless",0.2,0.6,0.2,0.899459029628736,"false"
"image-keyboard-response",117,137619,"0.0-3.35-1.35","hoopxtschbda6wk",321,"141.csv","","null","resources/maskTrios/L4BB.jpg","null","",NA,NA,NA,NA,""
"image-keyboard-response",118,138821,"0.0-3.35-2.35","hoopxtschbda6wk",321,"141.csv","","null","resources/images/fishbone.png","null","",NA,NA,NA,NA,""
"image-keyboard-response",119,139078,"0.0-3.36-0.36","hoopxtschbda6wk",321,"141.csv","","255.29999999701977","resources/trios/L4T4A2.jpg","38","restless",0.2,0.6,0.2,0.475103695418487,"true"
"image-keyboard-response",120,139482,"0.0-3.36-1.36","hoopxtschbda6wk",321,"141.csv","","null","resources/maskTrios/BT4B.jpg","null","",NA,NA,NA,NA,""
"image-keyboard-response",121,140688,"0.0-3.36-2.36","hoopxtschbda6wk",321,"141.csv","","null","resources/images/coin2.png","null","",NA,NA,NA,NA,""
"image-keyboard-response",122,141588,"0.0-3.37-0.37","hoopxtschbda6wk",321,"141.csv","","897.5","resources/trios/L4T1A3.jpg","37","restless",0.2,0.5,0.2,0.227205287813791,"false"
"image-keyboard-response",123,141989,"0.0-3.37-1.37","hoopxtschbda6wk",321,"141.csv","","null","resources/maskTrios/L4BB.jpg","null","",NA,NA,NA,NA,""
"image-keyboard-response",124,143194,"0.0-3.37-2.37","hoopxtschbda6wk",321,"141.csv","","null","resources/images/fishbone.png","null","",NA,NA,NA,NA,""
"image-keyboard-response",125,143507,"0.0-3.38-0.38","hoopxtschbda6wk",321,"141.csv","","311.20000000298023","resources/trios/L4T1A3.jpg","39","restless",0.2,0.5,0.2,0.770537582472975,"false"
"image-keyboard-response",126,143914,"0.0-3.38-1.38","hoopxtschbda6wk",321,"141.csv","","null","resources/maskTrios/BBA3.jpg","null","",NA,NA,NA,NA,""
"image-keyboard-response",127,145119,"0.0-3.38-2.38","hoopxtschbda6wk",321,"141.csv","","null","resources/images/fishbone.png","null","",NA,NA,NA,NA,""
"image-keyboard-response",128,145703,"0.0-3.39-0.39","hoopxtschbda6wk",321,"141.csv","","581.4000000059605","resources/trios/L4T1A2.jpg","38","restless",0.2,0.6,0.2,0.961546819261575,"false"
"image-keyboard-response",129,146109,"0.0-3.39-1.39","hoopxtschbda6wk",321,"141.csv","","null","resources/maskTrios/BT1B.jpg","null","",NA,NA,NA,NA,""
"image-keyboard-response",130,147316,"0.0-3.39-2.39","hoopxtschbda6wk",321,"141.csv","","null","resources/images/fishbone.png","null","",NA,NA,NA,NA,""
"image-keyboard-response",131,147774,"0.0-3.40-0.40","hoopxtschbda6wk",321,"141.csv","","457.09999999403954","resources/trios/L4T1A2.jpg","38","restless",0.3,0.6,0.2,0.0739604909118388,"true"
"image-keyboard-response",132,148179,"0.0-3.40-1.40","hoopxtschbda6wk",321,"141.csv","","null","resources/maskTrios/BT1B.jpg","null","",NA,NA,NA,NA,""
"image-keyboard-response",133,149382,"0.0-3.40-2.40","hoopxtschbda6wk",321,"141.csv","","null","resources/images/coin2.png","null","",NA,NA,NA,NA,""
"image-keyboard-response",134,149904,"0.0-3.41-0.41","hoopxtschbda6wk",321,"141.csv","","520.6000000089407","resources/trios/L2T1A2.jpg","37","restless",0.4,0.6,0.3,0.0929967031295262,"true"
"image-keyboard-response",135,150311,"0.0-3.41-1.41","hoopxtschbda6wk",321,"141.csv","","null","resources/maskTrios/L2BB.jpg","null","",NA,NA,NA,NA,""
"image-keyboard-response",136,151517,"0.0-3.41-2.41","hoopxtschbda6wk",321,"141.csv","","null","resources/images/coin2.png","null","",NA,NA,NA,NA,""
"image-keyboard-response",137,152106,"0.0-3.42-0.42","hoopxtschbda6wk",321,"141.csv","","586.6999999880791","resources/trios/L4T1A3.jpg","39","restless",0.4,0.6,0.3,0.185221134409739,"true"
"image-keyboard-response",138,152512,"0.0-3.42-1.42","hoopxtschbda6wk",321,"141.csv","","null","resources/maskTrios/BBA3.jpg","null","",NA,NA,NA,NA,""
"image-keyboard-response",139,153719,"0.0-3.42-2.42","hoopxtschbda6wk",321,"141.csv","","null","resources/images/coin2.png","null","",NA,NA,NA,NA,""
"image-keyboard-response",140,154129,"0.0-3.43-0.43","hoopxtschbda6wk",321,"141.csv","","408.8999999910593","resources/trios/L4T4A2.jpg","38","restless",0.4,0.6,0.3,0.386891771228201,"true"
"image-keyboard-response",141,154536,"0.0-3.43-1.43","hoopxtschbda6wk",321,"141.csv","","null","resources/maskTrios/BT4B.jpg","null","",NA,NA,NA,NA,""
"image-keyboard-response",142,155739,"0.0-3.43-2.43","hoopxtschbda6wk",321,"141.csv","","null","resources/images/coin2.png","null","",NA,NA,NA,NA,""
"image-keyboard-response",143,156018,"0.0-3.44-0.44","hoopxtschbda6wk",321,"141.csv","","277.90000000596046","resources/trios/L4T1A3.jpg","37","restless",0.4,0.6,0.3,0.641339246498003,"false"
"image-keyboard-response",144,156425,"0.0-3.44-1.44","hoopxtschbda6wk",321,"141.csv","","null","resources/maskTrios/L4BB.jpg","null","",NA,NA,NA,NA,""
"image-keyboard-response",145,157631,"0.0-3.44-2.44","hoopxtschbda6wk",321,"141.csv","","null","resources/images/fishbone.png","null","",NA,NA,NA,NA,""
"image-keyboard-response",146,157980,"0.0-3.45-0.45","hoopxtschbda6wk",321,"141.csv","","347.40000000596046","resources/trios/L4T4A3.jpg","38","restless",0.4,0.6,0.3,0.74147987899843,"false"
"image-keyboard-response",147,158382,"0.0-3.45-1.45","hoopxtschbda6wk",321,"141.csv","","null","resources/maskTrios/BT4B.jpg","null","",NA,NA,NA,NA,""
"image-keyboard-response",148,159589,"0.0-3.45-2.45","hoopxtschbda6wk",321,"141.csv","","null","resources/images/fishbone.png","null","",NA,NA,NA,NA,""
"image-keyboard-response",149,159930,"0.0-3.46-0.46","hoopxtschbda6wk",321,"141.csv","","340.1000000089407","resources/trios/L2T1A3.jpg","39","restless",0.4,0.6,0.3,0.760826426960545,"false"
"image-keyboard-response",150,160332,"0.0-3.46-1.46","hoopxtschbda6wk",321,"141.csv","","null","resources/maskTrios/BBA3.jpg","null","",NA,NA,NA,NA,""
"image-keyboard-response",151,161538,"0.0-3.46-2.46","hoopxtschbda6wk",321,"141.csv","","null","resources/images/fishbone.png","null","",NA,NA,NA,NA,""
"image-keyboard-response",152,161823,"0.0-3.47-0.47","hoopxtschbda6wk",321,"141.csv","","282.6000000089407","resources/trios/L4T4A3.jpg","38","restless",0.3,0.6,0.3,0.889335651452629,"false"
"image-keyboard-response",153,162229,"0.0-3.47-1.47","hoopxtschbda6wk",321,"141.csv","","null","resources/maskTrios/BT4B.jpg","null","",NA,NA,NA,NA,""
"image-keyboard-response",154,163432,"0.0-3.47-2.47","hoopxtschbda6wk",321,"141.csv","","null","resources/images/fishbone.png","null","",NA,NA,NA,NA,""
"image-keyboard-response",155,163830,"0.0-3.48-0.48","hoopxtschbda6wk",321,"141.csv","","395.59999999403954","resources/trios/L2T1A2.jpg","37","restless",0.3,0.6,0.3,0.835093350616835,"false"
"image-keyboard-response",156,164232,"0.0-3.48-1.48","hoopxtschbda6wk",321,"141.csv","","null","resources/maskTrios/L2BB.jpg","null","",NA,NA,NA,NA,""
"image-keyboard-response",157,165437,"0.0-3.48-2.48","hoopxtschbda6wk",321,"141.csv","","null","resources/images/fishbone.png","null","",NA,NA,NA,NA,""
"image-keyboard-response",158,165706,"0.0-3.49-0.49","hoopxtschbda6wk",321,"141.csv","","267.09999999403954","resources/trios/L2T1A2.jpg","38","restless",0.3,0.6,0.3,0.179291494069951,"true"
"image-keyboard-response",159,166113,"0.0-3.49-1.49","hoopxtschbda6wk",321,"141.csv","","null","resources/maskTrios/BT1B.jpg","null","",NA,NA,NA,NA,""
"image-keyboard-response",160,167317,"0.0-3.49-2.49","hoopxtschbda6wk",321,"141.csv","","null","resources/images/coin2.png","null","",NA,NA,NA,NA,""
"image-keyboard-response",161,167979,"0.0-3.50-0.50","hoopxtschbda6wk",321,"141.csv","","660.8999999910593","resources/trios/L2T1A2.jpg","39","restless",0.3,0.6,0.3,0.840063461487464,"false"
"image-keyboard-response",162,168385,"0.0-3.50-1.50","hoopxtschbda6wk",321,"141.csv","","null","resources/maskTrios/BBA2.jpg","null","",NA,NA,NA,NA,""
"image-keyboard-response",163,169592,"0.0-3.50-2.50","hoopxtschbda6wk",321,"141.csv","","null","resources/images/fishbone.png","null","",NA,NA,NA,NA,""
"image-keyboard-response",164,171625,"0.0-3.51-0.51","hoopxtschbda6wk",321,"141.csv","","2031.7999999970198","resources/trios/L4T1A3.jpg","38","restless",0.3,0.5,0.3,0.773967302298442,"false"
"image-keyboard-response",165,172031,"0.0-3.51-1.51","hoopxtschbda6wk",321,"141.csv","","null","resources/maskTrios/BT1B.jpg","null","",NA,NA,NA,NA,""
"image-keyboard-response",166,173233,"0.0-3.51-2.51","hoopxtschbda6wk",321,"141.csv","","null","resources/images/fishbone.png","null","",NA,NA,NA,NA,""
"image-keyboard-response",167,173859,"0.0-3.52-0.52","hoopxtschbda6wk",321,"141.csv","","623.8999999910593","resources/trios/L4T4A3.jpg","37","restless",0.3,0.5,0.3,0.782127175044865,"false"
"image-keyboard-response",168,174265,"0.0-3.52-1.52","hoopxtschbda6wk",321,"141.csv","","null","resources/maskTrios/L4BB.jpg","null","",NA,NA,NA,NA,""
"image-keyboard-response",169,175468,"0.0-3.52-2.52","hoopxtschbda6wk",321,"141.csv","","null","resources/images/fishbone.png","null","",NA,NA,NA,NA,""
"image-keyboard-response",170,175919,"0.0-3.53-0.53","hoopxtschbda6wk",321,"141.csv","","449.8999999910593","resources/trios/L4T1A2.jpg","38","restless",0.3,0.5,0.3,0.378315549105293,"true"
"image-keyboard-response",171,176326,"0.0-3.53-1.53","hoopxtschbda6wk",321,"141.csv","","null","resources/maskTrios/BT1B.jpg","null","",NA,NA,NA,NA,""
"image-keyboard-response",172,177529,"0.0-3.53-2.53","hoopxtschbda6wk",321,"141.csv","","null","resources/images/coin2.png","null","",NA,NA,NA,NA,""
"image-keyboard-response",173,177630,"0.0-3.54-0.54","hoopxtschbda6wk",321,"141.csv","","99.70000000298023","resources/trios/L2T1A2.jpg","39","restless",0.3,0.5,0.2,0.848601024537044,"false"
"image-keyboard-response",174,178033,"0.0-3.54-1.54","hoopxtschbda6wk",321,"141.csv","","null","resources/maskTrios/BBA2.jpg","null","",NA,NA,NA,NA,""
"image-keyboard-response",175,179239,"0.0-3.54-2.54","hoopxtschbda6wk",321,"141.csv","","null","resources/images/fishbone.png","null","",NA,NA,NA,NA,""
"image-keyboard-response",176,179577,"0.0-3.55-0.55","hoopxtschbda6wk",321,"141.csv","","336.30000001192093","resources/trios/L4T1A2.jpg","38","restless",0.3,0.5,0.2,0.59388926399255,"false"
"image-keyboard-response",177,179980,"0.0-3.55-1.55","hoopxtschbda6wk",321,"141.csv","","null","resources/maskTrios/BT1B.jpg","null","",NA,NA,NA,NA,""
"image-keyboard-response",178,181183,"0.0-3.55-2.55","hoopxtschbda6wk",321,"141.csv","","null","resources/images/fishbone.png","null","",NA,NA,NA,NA,""
"image-keyboard-response",179,181665,"0.0-3.56-0.56","hoopxtschbda6wk",321,"141.csv","","481","resources/trios/L4T4A3.jpg","37","restless",0.3,0.5,0.2,0.880808876328249,"false"
"image-keyboard-response",180,182068,"0.0-3.56-1.56","hoopxtschbda6wk",321,"141.csv","","null","resources/maskTrios/L4BB.jpg","null","",NA,NA,NA,NA,""
"image-keyboard-response",181,183272,"0.0-3.56-2.56","hoopxtschbda6wk",321,"141.csv","","null","resources/images/fishbone.png","null","",NA,NA,NA,NA,""
"image-keyboard-response",182,184010,"0.0-3.57-0.57","hoopxtschbda6wk",321,"141.csv","","736.7000000029802","resources/trios/L4T4A3.jpg","39","restless",0.3,0.5,0.2,0.76970567273505,"false"
"image-keyboard-response",183,184417,"0.0-3.57-1.57","hoopxtschbda6wk",321,"141.csv","","null","resources/maskTrios/BBA3.jpg","null","",NA,NA,NA,NA,""
"image-keyboard-response",184,185623,"0.0-3.57-2.57","hoopxtschbda6wk",321,"141.csv","","null","resources/images/fishbone.png","null","",NA,NA,NA,NA,""
"image-keyboard-response",185,186985,"0.0-3.58-0.58","hoopxtschbda6wk",321,"141.csv","","1360.0999999940395","resources/trios/L4T1A3.jpg","37","restless",0.3,0.5,0.2,0.955055892359485,"false"
"image-keyboard-response",186,187391,"0.0-3.58-1.58","hoopxtschbda6wk",321,"141.csv","","null","resources/maskTrios/L4BB.jpg","null","",NA,NA,NA,NA,""
"image-keyboard-response",187,188595,"0.0-3.58-2.58","hoopxtschbda6wk",321,"141.csv","","null","resources/images/fishbone.png","null","",NA,NA,NA,NA,""
"image-keyboard-response",188,188867,"0.0-3.59-0.59","hoopxtschbda6wk",321,"141.csv","","269.8999999910593","resources/trios/L4T4A2.jpg","38","restless",0.3,0.5,0.2,0.884508625097119,"false"
"image-keyboard-response",189,189274,"0.0-3.59-1.59","hoopxtschbda6wk",321,"141.csv","","null","resources/maskTrios/BT4B.jpg","null","",NA,NA,NA,NA,""
"image-keyboard-response",190,190480,"0.0-3.59-2.59","hoopxtschbda6wk",321,"141.csv","","null","resources/images/fishbone.png","null","",NA,NA,NA,NA,""
"image-keyboard-response",191,190775,"0.0-3.60-0.60","hoopxtschbda6wk",321,"141.csv","","293.29999999701977","resources/trios/L4T4A2.jpg","39","restless",0.3,0.5,0.2,0.265193890736559,"false"
"image-keyboard-response",192,191177,"0.0-3.60-1.60","hoopxtschbda6wk",321,"141.csv","","null","resources/maskTrios/BBA2.jpg","null","",NA,NA,NA,NA,""
"image-keyboard-response",193,192383,"0.0-3.60-2.60","hoopxtschbda6wk",321,"141.csv","","null","resources/images/fishbone.png","null","",NA,NA,NA,NA,""
"image-keyboard-response",194,192659,"0.0-3.61-0.61","hoopxtschbda6wk",321,"141.csv","","274.29999999701977","resources/trios/L2T4A3.jpg","38","restless",0.3,0.5,0.3,0.721082736114014,"false"
"image-keyboard-response",195,193065,"0.0-3.61-1.61","hoopxtschbda6wk",321,"141.csv","","null","resources/maskTrios/BT4B.jpg","null","",NA,NA,NA,NA,""
"image-keyboard-response",196,194268,"0.0-3.61-2.61","hoopxtschbda6wk",321,"141.csv","","null","resources/images/fishbone.png","null","",NA,NA,NA,NA,""
"image-keyboard-response",197,194590,"0.0-3.62-0.62","hoopxtschbda6wk",321,"141.csv","","320.5","resources/trios/L4T1A3.jpg","38","restless",0.3,0.5,0.3,0.295813878541844,"true"
"image-keyboard-response",198,194995,"0.0-3.62-1.62","hoopxtschbda6wk",321,"141.csv","","null","resources/maskTrios/BT1B.jpg","null","",NA,NA,NA,NA,""
"image-keyboard-response",199,196202,"0.0-3.62-2.62","hoopxtschbda6wk",321,"141.csv","","null","resources/images/coin2.png","null","",NA,NA,NA,NA,""
"image-keyboard-response",200,196577,"0.0-3.63-0.63","hoopxtschbda6wk",321,"141.csv","","373","resources/trios/L4T1A3.jpg","39","restless",0.3,0.5,0.3,0.902200928711249,"false"
"image-keyboard-response",201,196983,"0.0-3.63-1.63","hoopxtschbda6wk",321,"141.csv","","null","resources/maskTrios/BBA3.jpg","null","",NA,NA,NA,NA,""
"image-keyboard-response",202,198189,"0.0-3.63-2.63","hoopxtschbda6wk",321,"141.csv","","null","resources/images/fishbone.png","null","",NA,NA,NA,NA,""
"image-keyboard-response",203,198997,"0.0-3.64-0.64","hoopxtschbda6wk",321,"141.csv","","805.9000000059605","resources/trios/L2T1A3.jpg","37","restless",0.3,0.5,0.3,0.503398980558555,"false"
"image-keyboard-response",204,199400,"0.0-3.64-1.64","hoopxtschbda6wk",321,"141.csv","","null","resources/maskTrios/L2BB.jpg","null","",NA,NA,NA,NA,""
"image-keyboard-response",205,200606,"0.0-3.64-2.64","hoopxtschbda6wk",321,"141.csv","","null","resources/images/fishbone.png","null","",NA,NA,NA,NA,""
"image-keyboard-response",206,200901,"0.0-3.65-0.65","hoopxtschbda6wk",321,"141.csv","","293.6000000089407","resources/trios/L2T4A2.jpg","38","restless",0.3,0.5,0.3,0.0631429250525408,"true"
"image-keyboard-response",207,201303,"0.0-3.65-1.65","hoopxtschbda6wk",321,"141.csv","","null","resources/maskTrios/BT4B.jpg","null","",NA,NA,NA,NA,""
"image-keyboard-response",208,202509,"0.0-3.65-2.65","hoopxtschbda6wk",321,"141.csv","","null","resources/images/coin2.png","null","",NA,NA,NA,NA,""
"image-keyboard-response",209,205458,"0.0-3.66-0.66","hoopxtschbda6wk",321,"141.csv","","2946.9000000059605","resources/trios/L2T1A2.jpg","37","restless",0.3,0.5,0.3,0.0452587589623237,"true"
"image-keyboard-response",210,205862,"0.0-3.66-1.66","hoopxtschbda6wk",321,"141.csv","","null","resources/maskTrios/L2BB.jpg","null","",NA,NA,NA,NA,""
"image-keyboard-response",211,207067,"0.0-3.66-2.66","hoopxtschbda6wk",321,"141.csv","","null","resources/images/coin2.png","null","",NA,NA,NA,NA,""
"image-keyboard-response",212,207579,"0.0-3.67-0.67","hoopxtschbda6wk",321,"141.csv","","510.29999999701977","resources/trios/L4T1A3.jpg","39","restless",0.3,0.5,0.4,0.96233184993998,"false"
"image-keyboard-response",213,207985,"0.0-3.67-1.67","hoopxtschbda6wk",321,"141.csv","","null","resources/maskTrios/BBA3.jpg","null","",NA,NA,NA,NA,""
"image-keyboard-response",214,209192,"0.0-3.67-2.67","hoopxtschbda6wk",321,"141.csv","","null","resources/images/fishbone.png","null","",NA,NA,NA,NA,""
"image-keyboard-response",215,209518,"0.0-3.68-0.68","hoopxtschbda6wk",321,"141.csv","","324.70000000298023","resources/trios/L2T4A2.jpg","38","restless",0.3,0.5,0.4,0.947795951472548,"false"
"image-keyboard-response",216,209924,"0.0-3.68-1.68","hoopxtschbda6wk",321,"141.csv","","null","resources/maskTrios/BT4B.jpg","null","",NA,NA,NA,NA,""
"image-keyboard-response",217,211131,"0.0-3.68-2.68","hoopxtschbda6wk",321,"141.csv","","null","resources/images/fishbone.png","null","",NA,NA,NA,NA,""
"image-keyboard-response",218,211428,"0.0-3.69-0.69","hoopxtschbda6wk",321,"141.csv","","295.5","resources/trios/L4T4A3.jpg","37","restless",0.2,0.6,0.4,0.178178405682621,"true"
"image-keyboard-response",219,211833,"0.0-3.69-1.69","hoopxtschbda6wk",321,"141.csv","","null","resources/maskTrios/L4BB.jpg","null","",NA,NA,NA,NA,""
"image-keyboard-response",220,213036,"0.0-3.69-2.69","hoopxtschbda6wk",321,"141.csv","","null","resources/images/coin2.png","null","",NA,NA,NA,NA,""
"image-keyboard-response",221,214478,"0.0-3.70-0.70","hoopxtschbda6wk",321,"141.csv","","1440.199999988079","resources/trios/L2T4A2.jpg","38","restless",0.2,0.6,0.4,0.445942520926605,"true"
"image-keyboard-response",222,214884,"0.0-3.70-1.70","hoopxtschbda6wk",321,"141.csv","","null","resources/maskTrios/BT4B.jpg","null","",NA,NA,NA,NA,""
"image-keyboard-response",223,216086,"0.0-3.70-2.70","hoopxtschbda6wk",321,"141.csv","","null","resources/images/coin2.png","null","",NA,NA,NA,NA,""
"image-keyboard-response",224,216866,"0.0-3.71-0.71","hoopxtschbda6wk",321,"141.csv","","778.7999999970198","resources/trios/L2T1A2.jpg","37","restless",0.2,0.6,0.4,0.58956325434402,"false"
"image-keyboard-response",225,217273,"0.0-3.71-1.71","hoopxtschbda6wk",321,"141.csv","","null","resources/maskTrios/L2BB.jpg","null","",NA,NA,NA,NA,""
"image-keyboard-response",226,218479,"0.0-3.71-2.71","hoopxtschbda6wk",321,"141.csv","","null","resources/images/fishbone.png","null","",NA,NA,NA,NA,""
"image-keyboard-response",227,218973,"0.0-3.72-0.72","hoopxtschbda6wk",321,"141.csv","","492.79999999701977","resources/trios/L2T4A2.jpg","38","restless",0.2,0.6,0.4,0.474170366416457,"true"
"image-keyboard-response",228,219379,"0.0-3.72-1.72","hoopxtschbda6wk",321,"141.csv","","null","resources/maskTrios/BT4B.jpg","null","",NA,NA,NA,NA,""
"image-keyboard-response",229,220585,"0.0-3.72-2.72","hoopxtschbda6wk",321,"141.csv","","null","resources/images/coin2.png","null","",NA,NA,NA,NA,""
"image-keyboard-response",230,223463,"0.0-3.73-0.73","hoopxtschbda6wk",321,"141.csv","","2876.7000000029802","resources/trios/L4T1A2.jpg","37","restless",0.2,0.6,0.4,0.199693821270144,"true"
"image-keyboard-response",231,223866,"0.0-3.73-1.73","hoopxtschbda6wk",321,"141.csv","","null","resources/maskTrios/L4BB.jpg","null","",NA,NA,NA,NA,""
"image-keyboard-response",232,225073,"0.0-3.73-2.73","hoopxtschbda6wk",321,"141.csv","","null","resources/images/coin2.png","null","",NA,NA,NA,NA,""
"image-keyboard-response",233,225582,"0.0-3.74-0.74","hoopxtschbda6wk",321,"141.csv","","507.79999999701977","resources/trios/L4T4A2.jpg","38","restless",0.2,0.6,0.4,0.00871396253296197,"true"
"image-keyboard-response",234,225986,"0.0-3.74-1.74","hoopxtschbda6wk",321,"141.csv","","null","resources/maskTrios/BT4B.jpg","null","",NA,NA,NA,NA,""
"image-keyboard-response",235,227192,"0.0-3.74-2.74","hoopxtschbda6wk",321,"141.csv","","null","resources/images/coin2.png","null","",NA,NA,NA,NA,""
"image-keyboard-response",236,229135,"0.0-3.75-0.75","hoopxtschbda6wk",321,"141.csv","","1941.7000000029802","resources/trios/L2T4A3.jpg","39","restless",0.2,0.6,0.5,0.906438170135656,"false"
"image-keyboard-response",237,229542,"0.0-3.75-1.75","hoopxtschbda6wk",321,"141.csv","","null","resources/maskTrios/BBA3.jpg","null","",NA,NA,NA,NA,""
"image-keyboard-response",238,230745,"0.0-3.75-2.75","hoopxtschbda6wk",321,"141.csv","","null","resources/images/fishbone.png","null","",NA,NA,NA,NA,""
"image-keyboard-response",239,231173,"0.0-3.76-0.76","hoopxtschbda6wk",321,"141.csv","","427","resources/trios/L2T4A2.jpg","38","restless",0.2,0.6,0.5,0.529357643954136,"true"
"image-keyboard-response",240,231577,"0.0-3.76-1.76","hoopxtschbda6wk",321,"141.csv","","null","resources/maskTrios/BT4B.jpg","null","",NA,NA,NA,NA,""
"image-keyboard-response",241,232780,"0.0-3.76-2.76","hoopxtschbda6wk",321,"141.csv","","null","resources/images/coin2.png","null","",NA,NA,NA,NA,""
"image-keyboard-response",242,233589,"0.0-3.77-0.77","hoopxtschbda6wk",321,"141.csv","","809.2000000029802","resources/trios/L4T1A3.jpg","37","restless",0.2,0.5,0.5,0.128256675122477,"true"
"image-keyboard-response",243,233991,"0.0-3.77-1.77","hoopxtschbda6wk",321,"141.csv","","null","resources/maskTrios/L4BB.jpg","null","",NA,NA,NA,NA,""
"image-keyboard-response",244,235196,"0.0-3.77-2.77","hoopxtschbda6wk",321,"141.csv","","null","resources/images/coin2.png","null","",NA,NA,NA,NA,""
"image-keyboard-response",245,235694,"0.0-3.78-0.78","hoopxtschbda6wk",321,"141.csv","","496.8999999910593","resources/trios/L4T4A3.jpg","38","restless",0.3,0.5,0.5,0.058843867240679,"true"
"image-keyboard-response",246,236100,"0.0-3.78-1.78","hoopxtschbda6wk",321,"141.csv","","null","resources/maskTrios/BT4B.jpg","null","",NA,NA,NA,NA,""
"image-keyboard-response",247,237302,"0.0-3.78-2.78","hoopxtschbda6wk",321,"141.csv","","null","resources/images/coin2.png","null","",NA,NA,NA,NA,""
"image-keyboard-response",248,238114,"0.0-3.79-0.79","hoopxtschbda6wk",321,"141.csv","","811.0999999940395","resources/trios/L2T4A3.jpg","38","restless",0.3,0.5,0.5,0.716706771251008,"false"
"image-keyboard-response",249,238520,"0.0-3.79-1.79","hoopxtschbda6wk",321,"141.csv","","null","resources/maskTrios/BT4B.jpg","null","",NA,NA,NA,NA,""
"image-keyboard-response",250,239721,"0.0-3.79-2.79","hoopxtschbda6wk",321,"141.csv","","null","resources/images/fishbone.png","null","",NA,NA,NA,NA,""
"image-keyboard-response",251,240327,"0.0-3.80-0.80","hoopxtschbda6wk",321,"141.csv","","604.7000000029802","resources/trios/L4T4A2.jpg","38","restless",0.4,0.5,0.5,0.173163372180753,"true"
"image-keyboard-response",252,240729,"0.0-3.80-1.80","hoopxtschbda6wk",321,"141.csv","","null","resources/maskTrios/BT4B.jpg","null","",NA,NA,NA,NA,""
"image-keyboard-response",253,241931,"0.0-3.80-2.80","hoopxtschbda6wk",321,"141.csv","","null","resources/images/coin2.png","null","",NA,NA,NA,NA,""
"image-keyboard-response",254,243555,"0.0-3.81-0.81","hoopxtschbda6wk",321,"141.csv","","1624.2000000029802","resources/trios/L2T4A2.jpg","37","restless",0.4,0.5,0.5,0.363296361110857,"true"
"image-keyboard-response",255,243961,"0.0-3.81-1.81","hoopxtschbda6wk",321,"141.csv","","null","resources/maskTrios/L2BB.jpg","null","",NA,NA,NA,NA,""
"image-keyboard-response",256,245167,"0.0-3.81-2.81","hoopxtschbda6wk",321,"141.csv","","null","resources/images/coin2.png","null","",NA,NA,NA,NA,""
"image-keyboard-response",257,246375,"0.0-3.82-0.82","hoopxtschbda6wk",321,"141.csv","","1206.8999999910593","resources/trios/L2T1A2.jpg","37","restless",0.4,0.5,0.6,0.915505090302429,"false"
"image-keyboard-response",258,246781,"0.0-3.82-1.82","hoopxtschbda6wk",321,"141.csv","","null","resources/maskTrios/L2BB.jpg","null","",NA,NA,NA,NA,""
"image-keyboard-response",259,247982,"0.0-3.82-2.82","hoopxtschbda6wk",321,"141.csv","","null","resources/images/fishbone.png","null","",NA,NA,NA,NA,""
"image-keyboard-response",260,248574,"0.0-3.83-0.83","hoopxtschbda6wk",321,"141.csv","","590.2000000029802","resources/trios/L4T4A3.jpg","38","restless",0.3,0.5,0.6,0.470190592855271,"true"
"image-keyboard-response",261,248979,"0.0-3.83-1.83","hoopxtschbda6wk",321,"141.csv","","null","resources/maskTrios/BT4B.jpg","null","",NA,NA,NA,NA,""
"image-keyboard-response",262,250185,"0.0-3.83-2.83","hoopxtschbda6wk",321,"141.csv","","null","resources/images/coin2.png","null","",NA,NA,NA,NA,""
"image-keyboard-response",263,250986,"0.0-3.84-0.84","hoopxtschbda6wk",321,"141.csv","","799.2000000029802","resources/trios/L4T1A2.jpg","37","restless",0.3,0.5,0.7,0.643370127175783,"false"
"image-keyboard-response",264,251387,"0.0-3.84-1.84","hoopxtschbda6wk",321,"141.csv","","null","resources/maskTrios/L4BB.jpg","null","",NA,NA,NA,NA,""
"image-keyboard-response",265,252593,"0.0-3.84-2.84","hoopxtschbda6wk",321,"141.csv","","null","resources/images/fishbone.png","null","",NA,NA,NA,NA,""
"image-keyboard-response",266,254661,"0.0-3.85-0.85","hoopxtschbda6wk",321,"141.csv","","2067","resources/trios/L2T1A3.jpg","38","restless",0.4,0.5,0.6,0.266110559168175,"true"
"image-keyboard-response",267,255065,"0.0-3.85-1.85","hoopxtschbda6wk",321,"141.csv","","null","resources/maskTrios/BT1B.jpg","null","",NA,NA,NA,NA,""
"image-keyboard-response",268,256271,"0.0-3.85-2.85","hoopxtschbda6wk",321,"141.csv","","null","resources/images/coin2.png","null","",NA,NA,NA,NA,""
"image-keyboard-response",269,256588,"0.0-3.86-0.86","hoopxtschbda6wk",321,"141.csv","","316.20000000298023","resources/trios/L4T4A3.jpg","39","restless",0.4,0.5,0.6,0.0238268788220961,"true"
"image-keyboard-response",270,256995,"0.0-3.86-1.86","hoopxtschbda6wk",321,"141.csv","","null","resources/maskTrios/BBA3.jpg","null","",NA,NA,NA,NA,""
"image-keyboard-response",271,258196,"0.0-3.86-2.86","hoopxtschbda6wk",321,"141.csv","","null","resources/images/coin2.png","null","",NA,NA,NA,NA,""
"image-keyboard-response",272,259476,"0.0-3.87-0.87","hoopxtschbda6wk",321,"141.csv","","1278.0999999940395","resources/trios/L4T1A2.jpg","37","restless",0.4,0.5,0.6,0.499370465540118,"false"
"image-keyboard-response",273,259882,"0.0-3.87-1.87","hoopxtschbda6wk",321,"141.csv","","null","resources/maskTrios/L4BB.jpg","null","",NA,NA,NA,NA,""
"image-keyboard-response",274,261088,"0.0-3.87-2.87","hoopxtschbda6wk",321,"141.csv","","null","resources/images/fishbone.png","null","",NA,NA,NA,NA,""
"image-keyboard-response",275,261580,"0.0-3.88-0.88","hoopxtschbda6wk",321,"141.csv","","489.79999999701977","resources/trios/L2T1A3.jpg","38","restless",0.4,0.5,0.6,0.202677080446274,"true"
"image-keyboard-response",276,261986,"0.0-3.88-1.88","hoopxtschbda6wk",321,"141.csv","","null","resources/maskTrios/BT1B.jpg","null","",NA,NA,NA,NA,""
"image-keyboard-response",277,263193,"0.0-3.88-2.88","hoopxtschbda6wk",321,"141.csv","","null","resources/images/coin2.png","null","",NA,NA,NA,NA,""
"image-keyboard-response",278,264363,"0.0-3.89-0.89","hoopxtschbda6wk",321,"141.csv","","1168.5999999940395","resources/trios/L2T4A2.jpg","37","restless",0.4,0.5,0.6,0.834747710558564,"false"
"image-keyboard-response",279,264769,"0.0-3.89-1.89","hoopxtschbda6wk",321,"141.csv","","null","resources/maskTrios/L2BB.jpg","null","",NA,NA,NA,NA,""
"image-keyboard-response",280,265975,"0.0-3.89-2.89","hoopxtschbda6wk",321,"141.csv","","null","resources/images/fishbone.png","null","",NA,NA,NA,NA,""
"image-keyboard-response",281,266406,"0.0-3.90-0.90","hoopxtschbda6wk",321,"141.csv","","430","resources/trios/L4T4A3.jpg","38","restless",0.3,0.5,0.6,0.163922308805054,"true"
"image-keyboard-response",282,266813,"0.0-3.90-1.90","hoopxtschbda6wk",321,"141.csv","","null","resources/maskTrios/BT4B.jpg","null","",NA,NA,NA,NA,""
"image-keyboard-response",283,268015,"0.0-3.90-2.90","hoopxtschbda6wk",321,"141.csv","","null","resources/images/coin2.png","null","",NA,NA,NA,NA,""
"image-keyboard-response",284,268584,"0.0-3.91-0.91","hoopxtschbda6wk",321,"141.csv","","567.3999999910593","resources/trios/L2T4A2.jpg","39","restless",0.3,0.5,0.6,0.528169755430467,"true"
"image-keyboard-response",285,268987,"0.0-3.91-1.91","hoopxtschbda6wk",321,"141.csv","","null","resources/maskTrios/BBA2.jpg","null","",NA,NA,NA,NA,""
"image-keyboard-response",286,270194,"0.0-3.91-2.91","hoopxtschbda6wk",321,"141.csv","","null","resources/images/coin2.png","null","",NA,NA,NA,NA,""
"image-keyboard-response",287,272929,"0.0-3.92-0.92","hoopxtschbda6wk",321,"141.csv","","2734.5","resources/trios/L2T1A3.jpg","37","restless",0.3,0.5,0.6,0.318757184865206,"false"
"image-keyboard-response",288,273336,"0.0-3.92-1.92","hoopxtschbda6wk",321,"141.csv","","null","resources/maskTrios/L2BB.jpg","null","",NA,NA,NA,NA,""
"image-keyboard-response",289,274542,"0.0-3.92-2.92","hoopxtschbda6wk",321,"141.csv","","null","resources/images/fishbone.png","null","",NA,NA,NA,NA,""
"image-keyboard-response",290,274852,"0.0-3.93-0.93","hoopxtschbda6wk",321,"141.csv","","308.09999999403954","resources/trios/L2T1A3.jpg","38","restless",0.3,0.5,0.6,0.361133318659535,"true"
"image-keyboard-response",291,275258,"0.0-3.93-1.93","hoopxtschbda6wk",321,"141.csv","","null","resources/maskTrios/BT1B.jpg","null","",NA,NA,NA,NA,""
"image-keyboard-response",292,276463,"0.0-3.93-2.93","hoopxtschbda6wk",321,"141.csv","","null","resources/images/coin2.png","null","",NA,NA,NA,NA,""
"image-keyboard-response",293,276771,"0.0-3.94-0.94","hoopxtschbda6wk",321,"141.csv","","306.29999999701977","resources/trios/L2T1A3.jpg","39","restless",0.3,0.5,0.6,0.603774317964885,"false"
"image-keyboard-response",294,277174,"0.0-3.94-1.94","hoopxtschbda6wk",321,"141.csv","","null","resources/maskTrios/BBA3.jpg","null","",NA,NA,NA,NA,""
"image-keyboard-response",295,278376,"0.0-3.94-2.94","hoopxtschbda6wk",321,"141.csv","","null","resources/images/fishbone.png","null","",NA,NA,NA,NA,""
"image-keyboard-response",296,278838,"0.0-3.95-0.95","hoopxtschbda6wk",321,"141.csv","","460.5","resources/trios/L4T1A2.jpg","38","restless",0.3,0.5,0.6,0.368491367173353,"true"
"image-keyboard-response",297,279244,"0.0-3.95-1.95","hoopxtschbda6wk",321,"141.csv","","null","resources/maskTrios/BT1B.jpg","null","",NA,NA,NA,NA,""
"image-keyboard-response",298,280447,"0.0-3.95-2.95","hoopxtschbda6wk",321,"141.csv","","null","resources/images/coin2.png","null","",NA,NA,NA,NA,""
"image-keyboard-response",299,281437,"0.0-3.96-0.96","hoopxtschbda6wk",321,"141.csv","","987.5999999940395","resources/trios/L4T1A2.jpg","38","restless",0.3,0.5,0.6,0.466411984697841,"true"
"image-keyboard-response",300,281840,"0.0-3.96-1.96","hoopxtschbda6wk",321,"141.csv","","null","resources/maskTrios/BT1B.jpg","null","",NA,NA,NA,NA,""
"image-keyboard-response",301,283046,"0.0-3.96-2.96","hoopxtschbda6wk",321,"141.csv","","null","resources/images/coin2.png","null","",NA,NA,NA,NA,""
"image-keyboard-response",302,283630,"0.0-3.97-0.97","hoopxtschbda6wk",321,"141.csv","","582.5","resources/trios/L4T4A3.jpg","38","restless",0.3,0.5,0.6,0.316487330182734,"true"
"image-keyboard-response",303,284036,"0.0-3.97-1.97","hoopxtschbda6wk",321,"141.csv","","null","resources/maskTrios/BT4B.jpg","null","",NA,NA,NA,NA,""
"image-keyboard-response",304,285243,"0.0-3.97-2.97","hoopxtschbda6wk",321,"141.csv","","null","resources/images/coin2.png","null","",NA,NA,NA,NA,""
"image-keyboard-response",305,286633,"0.0-3.98-0.98","hoopxtschbda6wk",321,"141.csv","","1388.6000000089407","resources/trios/L4T4A2.jpg","38","restless",0.4,0.5,0.6,0.807689992105849,"false"
"image-keyboard-response",306,287036,"0.0-3.98-1.98","hoopxtschbda6wk",321,"141.csv","","null","resources/maskTrios/BT4B.jpg","null","",NA,NA,NA,NA,""
"image-keyboard-response",307,288243,"0.0-3.98-2.98","hoopxtschbda6wk",321,"141.csv","","null","resources/images/fishbone.png","null","",NA,NA,NA,NA,""
"image-keyboard-response",308,289199,"0.0-3.99-0.99","hoopxtschbda6wk",321,"141.csv","","953.7000000029802","resources/trios/L2T1A3.jpg","38","restless",0.4,0.5,0.6,0.666994777251215,"false"
"image-keyboard-response",309,289605,"0.0-3.99-1.99","hoopxtschbda6wk",321,"141.csv","","null","resources/maskTrios/BT1B.jpg","null","",NA,NA,NA,NA,""
"image-keyboard-response",310,290811,"0.0-3.99-2.99","hoopxtschbda6wk",321,"141.csv","","null","resources/images/fishbone.png","null","",NA,NA,NA,NA,""
"image-keyboard-response",311,291320,"0.0-3.100-0.100","hoopxtschbda6wk",321,"141.csv","","507.1000000089407","resources/trios/L2T4A2.jpg","38","restless",0.4,0.6,0.5,0.0125576300347057,"true"
"image-keyboard-response",312,291724,"0.0-3.100-1.100","hoopxtschbda6wk",321,"141.csv","","null","resources/maskTrios/BT4B.jpg","null","",NA,NA,NA,NA,""
"image-keyboard-response",313,292930,"0.0-3.100-2.100","hoopxtschbda6wk",321,"141.csv","","null","resources/images/coin2.png","null","",NA,NA,NA,NA,""
"image-keyboard-response",314,293498,"0.0-3.101-0.101","hoopxtschbda6wk",321,"141.csv","","565.9000000059605","resources/trios/L4T1A2.jpg","37","restless",0.4,0.6,0.5,0.0137439365892007,"true"
"image-keyboard-response",315,293904,"0.0-3.101-1.101","hoopxtschbda6wk",321,"141.csv","","null","resources/maskTrios/L4BB.jpg","null","",NA,NA,NA,NA,""
"image-keyboard-response",316,295111,"0.0-3.101-2.101","hoopxtschbda6wk",321,"141.csv","","null","resources/images/coin2.png","null","",NA,NA,NA,NA,""
"image-keyboard-response",317,295817,"0.0-3.102-0.102","hoopxtschbda6wk",321,"141.csv","","704.6999999880791","resources/trios/L2T1A3.jpg","38","restless",0.4,0.6,0.5,0.373263538556756,"true"
"image-keyboard-response",318,296222,"0.0-3.102-1.102","hoopxtschbda6wk",321,"141.csv","","null","resources/maskTrios/BT1B.jpg","null","",NA,NA,NA,NA,""
"image-keyboard-response",319,297424,"0.0-3.102-2.102","hoopxtschbda6wk",321,"141.csv","","null","resources/images/coin2.png","null","",NA,NA,NA,NA,""
"image-keyboard-response",320,298055,"0.0-3.103-0.103","hoopxtschbda6wk",321,"141.csv","","629.2999999970198","resources/trios/L4T1A2.jpg","38","restless",0.4,0.6,0.5,0.524572572012209,"true"
"image-keyboard-response",321,298461,"0.0-3.103-1.103","hoopxtschbda6wk",321,"141.csv","","null","resources/maskTrios/BT1B.jpg","null","",NA,NA,NA,NA,""
"image-keyboard-response",322,299668,"0.0-3.103-2.103","hoopxtschbda6wk",321,"141.csv","","null","resources/images/coin2.png","null","",NA,NA,NA,NA,""
"image-keyboard-response",323,301191,"0.0-3.104-0.104","hoopxtschbda6wk",321,"141.csv","","1521.7999999970198","resources/trios/L4T4A3.jpg","37","restless",0.4,0.7,0.5,0.345743277494635,"true"
"image-keyboard-response",324,301598,"0.0-3.104-1.104","hoopxtschbda6wk",321,"141.csv","","null","resources/maskTrios/L4BB.jpg","null","",NA,NA,NA,NA,""
"image-keyboard-response",325,302804,"0.0-3.104-2.104","hoopxtschbda6wk",321,"141.csv","","null","resources/images/coin2.png","null","",NA,NA,NA,NA,""
"image-keyboard-response",326,303321,"0.0-3.105-0.105","hoopxtschbda6wk",321,"141.csv","","514.7000000029802","resources/trios/L4T4A3.jpg","38","restless",0.4,0.7,0.5,0.924842682322468,"false"
"image-keyboard-response",327,303727,"0.0-3.105-1.105","hoopxtschbda6wk",321,"141.csv","","null","resources/maskTrios/BT4B.jpg","null","",NA,NA,NA,NA,""
"image-keyboard-response",328,304934,"0.0-3.105-2.105","hoopxtschbda6wk",321,"141.csv","","null","resources/images/fishbone.png","null","",NA,NA,NA,NA,""
"image-keyboard-response",329,306679,"0.0-3.106-0.106","hoopxtschbda6wk",321,"141.csv","","1743.7000000029802","resources/trios/L2T1A2.jpg","38","restless",0.4,0.7,0.5,0.509737316797378,"true"
"image-keyboard-response",330,307085,"0.0-3.106-1.106","hoopxtschbda6wk",321,"141.csv","","null","resources/maskTrios/BT1B.jpg","null","",NA,NA,NA,NA,""
"image-keyboard-response",331,308292,"0.0-3.106-2.106","hoopxtschbda6wk",321,"141.csv","","null","resources/images/coin2.png","null","",NA,NA,NA,NA,""
"image-keyboard-response",332,308812,"0.0-3.107-0.107","hoopxtschbda6wk",321,"141.csv","","518.6999999880791","resources/trios/L2T1A3.jpg","38","restless",0.4,0.7,0.5,0.59457823972055,"true"
"image-keyboard-response",333,309214,"0.0-3.107-1.107","hoopxtschbda6wk",321,"141.csv","","null","resources/maskTrios/BT1B.jpg","null","",NA,NA,NA,NA,""
"image-keyboard-response",334,310421,"0.0-3.107-2.107","hoopxtschbda6wk",321,"141.csv","","null","resources/images/coin2.png","null","",NA,NA,NA,NA,""
"image-keyboard-response",335,312591,"0.0-3.108-0.108","hoopxtschbda6wk",321,"141.csv","","2168.9000000059605","resources/trios/L2T4A2.jpg","38","restless",0.4,0.7,0.5,0.802218910071521,"false"
"image-keyboard-response",336,312995,"0.0-3.108-1.108","hoopxtschbda6wk",321,"141.csv","","null","resources/maskTrios/BT4B.jpg","null","",NA,NA,NA,NA,""
"image-keyboard-response",337,314201,"0.0-3.108-2.108","hoopxtschbda6wk",321,"141.csv","","null","resources/images/fishbone.png","null","",NA,NA,NA,NA,""
"image-keyboard-response",338,314804,"0.0-3.109-0.109","hoopxtschbda6wk",321,"141.csv","","601.7999999970198","resources/trios/L2T4A2.jpg","38","restless",0.4,0.7,0.5,0.726148457642526,"false"
"image-keyboard-response",339,315208,"0.0-3.109-1.109","hoopxtschbda6wk",321,"141.csv","","null","resources/maskTrios/BT4B.jpg","null","",NA,NA,NA,NA,""
"image-keyboard-response",340,316411,"0.0-3.109-2.109","hoopxtschbda6wk",321,"141.csv","","null","resources/images/fishbone.png","null","",NA,NA,NA,NA,""
"image-keyboard-response",341,317226,"0.0-3.110-0.110","hoopxtschbda6wk",321,"141.csv","","812.7999999970198","resources/trios/L4T4A2.jpg","38","restless",0.4,0.7,0.5,0.963472782513865,"false"
"image-keyboard-response",342,317631,"0.0-3.110-1.110","hoopxtschbda6wk",321,"141.csv","","null","resources/maskTrios/BT4B.jpg","null","",NA,NA,NA,NA,""
"image-keyboard-response",343,318837,"0.0-3.110-2.110","hoopxtschbda6wk",321,"141.csv","","null","resources/images/fishbone.png","null","",NA,NA,NA,NA,""
"image-keyboard-response",344,319558,"0.0-3.111-0.111","hoopxtschbda6wk",321,"141.csv","","718.5999999940395","resources/trios/L4T1A2.jpg","37","restless",0.5,0.7,0.5,0.374715305053093,"true"
"image-keyboard-response",345,319965,"0.0-3.111-1.111","hoopxtschbda6wk",321,"141.csv","","null","resources/maskTrios/L4BB.jpg","null","",NA,NA,NA,NA,""
"image-keyboard-response",346,321167,"0.0-3.111-2.111","hoopxtschbda6wk",321,"141.csv","","null","resources/images/coin2.png","null","",NA,NA,NA,NA,""
"image-keyboard-response",347,321704,"0.0-3.112-0.112","hoopxtschbda6wk",321,"141.csv","","535.7000000029802","resources/trios/L4T1A3.jpg","37","restless",0.5,0.7,0.5,0.457980085307746,"true"
"image-keyboard-response",348,322111,"0.0-3.112-1.112","hoopxtschbda6wk",321,"141.csv","","null","resources/maskTrios/L4BB.jpg","null","",NA,NA,NA,NA,""
"image-keyboard-response",349,323317,"0.0-3.112-2.112","hoopxtschbda6wk",321,"141.csv","","null","resources/images/coin2.png","null","",NA,NA,NA,NA,""
"image-keyboard-response",350,325111,"0.0-3.113-0.113","hoopxtschbda6wk",321,"141.csv","","1792.0999999940395","resources/trios/L2T4A3.jpg","39","restless",0.5,0.7,0.5,0.286390737888489,"true"
"image-keyboard-response",351,325518,"0.0-3.113-1.113","hoopxtschbda6wk",321,"141.csv","","null","resources/maskTrios/BBA3.jpg","null","",NA,NA,NA,NA,""
"image-keyboard-response",352,326724,"0.0-3.113-2.113","hoopxtschbda6wk",321,"141.csv","","null","resources/images/coin2.png","null","",NA,NA,NA,NA,""
"image-keyboard-response",353,328953,"0.0-3.114-0.114","hoopxtschbda6wk",321,"141.csv","","2226.7000000029802","resources/trios/L4T4A3.jpg","38","restless",0.4,0.8,0.4,0.541410186852216,"true"
"image-keyboard-response",354,329355,"0.0-3.114-1.114","hoopxtschbda6wk",321,"141.csv","","null","resources/maskTrios/BT4B.jpg","null","",NA,NA,NA,NA,""
"image-keyboard-response",355,330562,"0.0-3.114-2.114","hoopxtschbda6wk",321,"141.csv","","null","resources/images/coin2.png","null","",NA,NA,NA,NA,""
"image-keyboard-response",356,331316,"0.0-3.115-0.115","hoopxtschbda6wk",321,"141.csv","","752.7999999970198","resources/trios/L4T4A3.jpg","37","restless",0.4,0.9,0.4,0.580124865225486,"false"
"image-keyboard-response",357,331723,"0.0-3.115-1.115","hoopxtschbda6wk",321,"141.csv","","null","resources/maskTrios/L4BB.jpg","null","",NA,NA,NA,NA,""
"image-keyboard-response",358,332927,"0.0-3.115-2.115","hoopxtschbda6wk",321,"141.csv","","null","resources/images/fishbone.png","null","",NA,NA,NA,NA,""
"image-keyboard-response",359,333587,"0.0-3.116-0.116","hoopxtschbda6wk",321,"141.csv","","658.8000000119209","resources/trios/L4T1A3.jpg","38","restless",0.4,0.9,0.4,0.815112358823456,"true"
"image-keyboard-response",360,333993,"0.0-3.116-1.116","hoopxtschbda6wk",321,"141.csv","","null","resources/maskTrios/BT1B.jpg","null","",NA,NA,NA,NA,""
"image-keyboard-response",361,335196,"0.0-3.116-2.116","hoopxtschbda6wk",321,"141.csv","","null","resources/images/coin2.png","null","",NA,NA,NA,NA,""
"image-keyboard-response",362,335518,"0.0-3.117-0.117","hoopxtschbda6wk",321,"141.csv","","320.1000000089407","resources/trios/L2T1A3.jpg","39","restless",0.4,0.9,0.4,0.419884973164395,"false"
"image-keyboard-response",363,335924,"0.0-3.117-1.117","hoopxtschbda6wk",321,"141.csv","","null","resources/maskTrios/BBA3.jpg","null","",NA,NA,NA,NA,""
"image-keyboard-response",364,337131,"0.0-3.117-2.117","hoopxtschbda6wk",321,"141.csv","","null","resources/images/fishbone.png","null","",NA,NA,NA,NA,""
"image-keyboard-response",365,337588,"0.0-3.118-0.118","hoopxtschbda6wk",321,"141.csv","","455.5","resources/trios/L4T1A2.jpg","38","restless",0.5,0.9,0.4,0.817353819546663,"true"
"image-keyboard-response",366,337992,"0.0-3.118-1.118","hoopxtschbda6wk",321,"141.csv","","null","resources/maskTrios/BT1B.jpg","null","",NA,NA,NA,NA,""
"image-keyboard-response",367,339199,"0.0-3.118-2.118","hoopxtschbda6wk",321,"141.csv","","null","resources/images/coin2.png","null","",NA,NA,NA,NA,""
"image-keyboard-response",368,339680,"0.0-3.119-0.119","hoopxtschbda6wk",321,"141.csv","","480.09999999403954","resources/trios/L4T1A3.jpg","37","restless",0.5,0.9,0.4,0.21618469798427,"true"
"image-keyboard-response",369,340087,"0.0-3.119-1.119","hoopxtschbda6wk",321,"141.csv","","null","resources/maskTrios/L4BB.jpg","null","",NA,NA,NA,NA,""
"image-keyboard-response",370,341292,"0.0-3.119-2.119","hoopxtschbda6wk",321,"141.csv","","null","resources/images/coin2.png","null","",NA,NA,NA,NA,""
"image-keyboard-response",371,341806,"0.0-3.120-0.120","hoopxtschbda6wk",321,"141.csv","","512.5","resources/trios/L2T1A2.jpg","38","restless",0.5,0.9,0.4,0.956383138499375,"false"
"image-keyboard-response",372,342213,"0.0-3.120-1.120","hoopxtschbda6wk",321,"141.csv","","null","resources/maskTrios/BT1B.jpg","null","",NA,NA,NA,NA,""
"image-keyboard-response",373,343419,"0.0-3.120-2.120","hoopxtschbda6wk",321,"141.csv","","null","resources/images/fishbone.png","null","",NA,NA,NA,NA,""
"image-keyboard-response",374,343895,"0.0-3.121-0.121","hoopxtschbda6wk",321,"141.csv","","474.20000000298023","resources/trios/L2T4A2.jpg","38","restless",0.5,0.9,0.4,0.978031719707231,"false"
"image-keyboard-response",375,344302,"0.0-3.121-1.121","hoopxtschbda6wk",321,"141.csv","","null","resources/maskTrios/BT4B.jpg","null","",NA,NA,NA,NA,""
"image-keyboard-response",376,345507,"0.0-3.121-2.121","hoopxtschbda6wk",321,"141.csv","","null","resources/images/fishbone.png","null","",NA,NA,NA,NA,""
"image-keyboard-response",377,346488,"0.0-3.122-0.122","hoopxtschbda6wk",321,"141.csv","","979.5999999940395","resources/trios/L2T1A3.jpg","38","restless",0.5,0.9,0.4,0.0972092333589378,"true"
"image-keyboard-response",378,346892,"0.0-3.122-1.122","hoopxtschbda6wk",321,"141.csv","","null","resources/maskTrios/BT1B.jpg","null","",NA,NA,NA,NA,""
"image-keyboard-response",379,348099,"0.0-3.122-2.122","hoopxtschbda6wk",321,"141.csv","","null","resources/images/coin2.png","null","",NA,NA,NA,NA,""
"image-keyboard-response",380,348639,"0.0-3.123-0.123","hoopxtschbda6wk",321,"141.csv","","538.7000000029802","resources/trios/L4T1A3.jpg","37","restless",0.5,0.9,0.4,0.681928866867655,"false"
"image-keyboard-response",381,349042,"0.0-3.123-1.123","hoopxtschbda6wk",321,"141.csv","","null","resources/maskTrios/L4BB.jpg","null","",NA,NA,NA,NA,""
"image-keyboard-response",382,350249,"0.0-3.123-2.123","hoopxtschbda6wk",321,"141.csv","","null","resources/images/fishbone.png","null","",NA,NA,NA,NA,""
"image-keyboard-response",383,350748,"0.0-3.124-0.124","hoopxtschbda6wk",321,"141.csv","","497.70000000298023","resources/trios/L2T4A2.jpg","38","restless",0.5,0.9,0.4,0.284313233109104,"true"
"image-keyboard-response",384,351155,"0.0-3.124-1.124","hoopxtschbda6wk",321,"141.csv","","null","resources/maskTrios/BT4B.jpg","null","",NA,NA,NA,NA,""
"image-keyboard-response",385,352361,"0.0-3.124-2.124","hoopxtschbda6wk",321,"141.csv","","null","resources/images/coin2.png","null","",NA,NA,NA,NA,""
"image-keyboard-response",386,354906,"0.0-3.125-0.125","hoopxtschbda6wk",321,"141.csv","","2542.4000000059605","resources/trios/L4T1A2.jpg","38","restless",0.5,0.9,0.4,0.387761629920913,"true"
"image-keyboard-response",387,355309,"0.0-3.125-1.125","hoopxtschbda6wk",321,"141.csv","","null","resources/maskTrios/BT1B.jpg","null","",NA,NA,NA,NA,""
"image-keyboard-response",388,356513,"0.0-3.125-2.125","hoopxtschbda6wk",321,"141.csv","","null","resources/images/coin2.png","null","",NA,NA,NA,NA,""
"image-keyboard-response",389,357152,"0.0-3.126-0.126","hoopxtschbda6wk",321,"141.csv","","638.2999999970198","resources/trios/L2T1A2.jpg","38","restless",0.5,0.9,0.4,0.749807738368448,"true"
"image-keyboard-response",390,357555,"0.0-3.126-1.126","hoopxtschbda6wk",321,"141.csv","","null","resources/maskTrios/BT1B.jpg","null","",NA,NA,NA,NA,""
"image-keyboard-response",391,358761,"0.0-3.126-2.126","hoopxtschbda6wk",321,"141.csv","","null","resources/images/coin2.png","null","",NA,NA,NA,NA,""
"image-keyboard-response",392,359215,"0.0-3.127-0.127","hoopxtschbda6wk",321,"141.csv","","452.79999999701977","resources/trios/L4T1A3.jpg","37","restless",0.5,0.9,0.4,0.0919830658841554,"true"
"image-keyboard-response",393,359622,"0.0-3.127-1.127","hoopxtschbda6wk",321,"141.csv","","null","resources/maskTrios/L4BB.jpg","null","",NA,NA,NA,NA,""
"image-keyboard-response",394,360825,"0.0-3.127-2.127","hoopxtschbda6wk",321,"141.csv","","null","resources/images/coin2.png","null","",NA,NA,NA,NA,""
"image-keyboard-response",395,361447,"0.0-3.128-0.128","hoopxtschbda6wk",321,"141.csv","","619.9000000059605","resources/trios/L4T4A3.jpg","38","restless",0.5,0.9,0.5,0.0513504790881625,"true"
"image-keyboard-response",396,361853,"0.0-3.128-1.128","hoopxtschbda6wk",321,"141.csv","","null","resources/maskTrios/BT4B.jpg","null","",NA,NA,NA,NA,""
"image-keyboard-response",397,363060,"0.0-3.128-2.128","hoopxtschbda6wk",321,"141.csv","","null","resources/images/coin2.png","null","",NA,NA,NA,NA,""
"image-keyboard-response",398,364557,"0.0-3.129-0.129","hoopxtschbda6wk",321,"141.csv","","1495.7000000029802","resources/trios/L2T4A3.jpg","38","restless",0.5,0.9,0.5,0.532058483503687,"true"
"image-keyboard-response",399,364964,"0.0-3.129-1.129","hoopxtschbda6wk",321,"141.csv","","null","resources/maskTrios/BT4B.jpg","null","",NA,NA,NA,NA,""
"image-keyboard-response",400,366166,"0.0-3.129-2.129","hoopxtschbda6wk",321,"141.csv","","null","resources/images/coin2.png","null","",NA,NA,NA,NA,""
"image-keyboard-response",401,367885,"0.0-3.130-0.130","hoopxtschbda6wk",321,"141.csv","","1717.5999999940395","resources/trios/L2T4A2.jpg","38","restless",0.5,0.8,0.5,0.944779259555228,"false"
"image-keyboard-response",402,368291,"0.0-3.130-1.130","hoopxtschbda6wk",321,"141.csv","","null","resources/maskTrios/BT4B.jpg","null","",NA,NA,NA,NA,""
"image-keyboard-response",403,369493,"0.0-3.130-2.130","hoopxtschbda6wk",321,"141.csv","","null","resources/images/fishbone.png","null","",NA,NA,NA,NA,""
"image-keyboard-response",404,370041,"0.0-3.131-0.131","hoopxtschbda6wk",321,"141.csv","","546.7999999970198","resources/trios/L2T4A2.jpg","38","restless",0.5,0.8,0.5,0.222585258573526,"true"
"image-keyboard-response",405,370443,"0.0-3.131-1.131","hoopxtschbda6wk",321,"141.csv","","null","resources/maskTrios/BT4B.jpg","null","",NA,NA,NA,NA,""
"image-keyboard-response",406,371650,"0.0-3.131-2.131","hoopxtschbda6wk",321,"141.csv","","null","resources/images/coin2.png","null","",NA,NA,NA,NA,""
"image-keyboard-response",407,372603,"0.0-3.132-0.132","hoopxtschbda6wk",321,"141.csv","","951.6000000089407","resources/trios/L4T1A2.jpg","37","restless",0.5,0.8,0.5,0.771589702829233,"false"
"image-keyboard-response",408,373009,"0.0-3.132-1.132","hoopxtschbda6wk",321,"141.csv","","null","resources/maskTrios/L4BB.jpg","null","",NA,NA,NA,NA,""
"image-keyboard-response",409,374213,"0.0-3.132-2.132","hoopxtschbda6wk",321,"141.csv","","null","resources/images/fishbone.png","null","",NA,NA,NA,NA,""
"image-keyboard-response",410,374686,"0.0-3.133-0.133","hoopxtschbda6wk",321,"141.csv","","471.70000000298023","resources/trios/L2T1A2.jpg","38","restless",0.5,0.8,0.5,0.642585705542695,"true"
"image-keyboard-response",411,375093,"0.0-3.133-1.133","hoopxtschbda6wk",321,"141.csv","","null","resources/maskTrios/BT1B.jpg","null","",NA,NA,NA,NA,""
"image-keyboard-response",412,376301,"0.0-3.133-2.133","hoopxtschbda6wk",321,"141.csv","","null","resources/images/coin2.png","null","",NA,NA,NA,NA,""
"image-keyboard-response",413,376623,"0.0-3.134-0.134","hoopxtschbda6wk",321,"141.csv","","320.90000000596046","resources/trios/L4T4A2.jpg","38","restless",0.5,0.8,0.5,0.285053830807357,"true"
"image-keyboard-response",414,377029,"0.0-3.134-1.134","hoopxtschbda6wk",321,"141.csv","","null","resources/maskTrios/BT4B.jpg","null","",NA,NA,NA,NA,""
"image-keyboard-response",415,378235,"0.0-3.134-2.134","hoopxtschbda6wk",321,"141.csv","","null","resources/images/coin2.png","null","",NA,NA,NA,NA,""
"image-keyboard-response",416,379945,"0.0-3.135-0.135","hoopxtschbda6wk",321,"141.csv","","1708.5","resources/trios/L2T1A3.jpg","39","restless",0.5,0.8,0.5,0.943763189599369,"false"
"image-keyboard-response",417,380352,"0.0-3.135-1.135","hoopxtschbda6wk",321,"141.csv","","null","resources/maskTrios/BBA3.jpg","null","",NA,NA,NA,NA,""
"image-keyboard-response",418,381556,"0.0-3.135-2.135","hoopxtschbda6wk",321,"141.csv","","null","resources/images/fishbone.png","null","",NA,NA,NA,NA,""
"image-keyboard-response",419,381903,"0.0-3.136-0.136","hoopxtschbda6wk",321,"141.csv","","346","resources/trios/L4T1A2.jpg","38","restless",0.5,0.8,0.5,0.802479781803476,"false"
"image-keyboard-response",420,382310,"0.0-3.136-1.136","hoopxtschbda6wk",321,"141.csv","","null","resources/maskTrios/BT1B.jpg","null","",NA,NA,NA,NA,""
"image-keyboard-response",421,383515,"0.0-3.136-2.136","hoopxtschbda6wk",321,"141.csv","","null","resources/images/fishbone.png","null","",NA,NA,NA,NA,""
"image-keyboard-response",422,383818,"0.0-3.137-0.137","hoopxtschbda6wk",321,"141.csv","","301.5","resources/trios/L2T1A2.jpg","38","restless",0.6,0.8,0.5,0.760861621593547,"true"
"image-keyboard-response",423,384224,"0.0-3.137-1.137","hoopxtschbda6wk",321,"141.csv","","null","resources/maskTrios/BT1B.jpg","null","",NA,NA,NA,NA,""
"image-keyboard-response",424,385426,"0.0-3.137-2.137","hoopxtschbda6wk",321,"141.csv","","null","resources/images/coin2.png","null","",NA,NA,NA,NA,""
"image-keyboard-response",425,386116,"0.0-3.138-0.138","hoopxtschbda6wk",321,"141.csv","","688.4000000059605","resources/trios/L2T1A3.jpg","38","restless",0.6,0.8,0.5,0.912887563251505,"false"
"image-keyboard-response",426,386523,"0.0-3.138-1.138","hoopxtschbda6wk",321,"141.csv","","null","resources/maskTrios/BT1B.jpg","null","",NA,NA,NA,NA,""
"image-keyboard-response",427,387729,"0.0-3.138-2.138","hoopxtschbda6wk",321,"141.csv","","null","resources/images/fishbone.png","null","",NA,NA,NA,NA,""
"image-keyboard-response",428,388243,"0.0-3.139-0.139","hoopxtschbda6wk",321,"141.csv","","512.5999999940395","resources/trios/L2T1A2.jpg","37","restless",0.6,0.8,0.5,0.220315956770047,"true"
"image-keyboard-response",429,388650,"0.0-3.139-1.139","hoopxtschbda6wk",321,"141.csv","","null","resources/maskTrios/L2BB.jpg","null","",NA,NA,NA,NA,""
"image-keyboard-response",430,389857,"0.0-3.139-2.139","hoopxtschbda6wk",321,"141.csv","","null","resources/images/coin2.png","null","",NA,NA,NA,NA,""
"image-keyboard-response",431,390416,"0.0-3.140-0.140","hoopxtschbda6wk",321,"141.csv","","558.0999999940395","resources/trios/L2T1A2.jpg","38","restless",0.6,0.8,0.6,0.892995135301827,"false"
"image-keyboard-response",432,390818,"0.0-3.140-1.140","hoopxtschbda6wk",321,"141.csv","","null","resources/maskTrios/BT1B.jpg","null","",NA,NA,NA,NA,""
"image-keyboard-response",433,392024,"0.0-3.140-2.140","hoopxtschbda6wk",321,"141.csv","","null","resources/images/fishbone.png","null","",NA,NA,NA,NA,""
"image-keyboard-response",434,392302,"0.0-3.141-0.141","hoopxtschbda6wk",321,"141.csv","","276.29999999701977","resources/trios/L4T4A2.jpg","37","restless",0.7,0.8,0.6,0.320750305475898,"true"
"image-keyboard-response",435,392709,"0.0-3.141-1.141","hoopxtschbda6wk",321,"141.csv","","null","resources/maskTrios/L4BB.jpg","null","",NA,NA,NA,NA,""
"image-keyboard-response",436,393915,"0.0-3.141-2.141","hoopxtschbda6wk",321,"141.csv","","null","resources/images/coin2.png","null","",NA,NA,NA,NA,""
"image-keyboard-response",437,394211,"0.0-3.142-0.142","hoopxtschbda6wk",321,"141.csv","","294.5","resources/trios/L2T1A3.jpg","38","restless",0.7,0.8,0.6,0.771381050998122,"true"
"image-keyboard-response",438,394614,"0.0-3.142-1.142","hoopxtschbda6wk",321,"141.csv","","null","resources/maskTrios/BT1B.jpg","null","",NA,NA,NA,NA,""
"image-keyboard-response",439,395815,"0.0-3.142-2.142","hoopxtschbda6wk",321,"141.csv","","null","resources/images/coin2.png","null","",NA,NA,NA,NA,""
"image-keyboard-response",440,396100,"0.0-3.143-0.143","hoopxtschbda6wk",321,"141.csv","","283.40000000596046","resources/trios/L2T4A3.jpg","38","restless",0.7,0.8,0.6,0.886157956911295,"false"
"image-keyboard-response",441,396507,"0.0-3.143-1.143","hoopxtschbda6wk",321,"141.csv","","null","resources/maskTrios/BT4B.jpg","null","",NA,NA,NA,NA,""
"image-keyboard-response",442,397713,"0.0-3.143-2.143","hoopxtschbda6wk",321,"141.csv","","null","resources/images/fishbone.png","null","",NA,NA,NA,NA,""
"image-keyboard-response",443,398266,"0.0-3.144-0.144","hoopxtschbda6wk",321,"141.csv","","551.2000000029802","resources/trios/L4T4A3.jpg","37","restless",0.7,0.8,0.6,0.871395855736395,"false"
"image-keyboard-response",444,398670,"0.0-3.144-1.144","hoopxtschbda6wk",321,"141.csv","","null","resources/maskTrios/L4BB.jpg","null","",NA,NA,NA,NA,""
"image-keyboard-response",445,399876,"0.0-3.144-2.144","hoopxtschbda6wk",321,"141.csv","","null","resources/images/fishbone.png","null","",NA,NA,NA,NA,""
"image-keyboard-response",446,400194,"0.0-3.145-0.145","hoopxtschbda6wk",321,"141.csv","","316.1000000089407","resources/trios/L2T4A2.jpg","38","restless",0.7,0.8,0.6,0.81790383416563,"false"
"image-keyboard-response",447,400599,"0.0-3.145-1.145","hoopxtschbda6wk",321,"141.csv","","null","resources/maskTrios/BT4B.jpg","null","",NA,NA,NA,NA,""
"image-keyboard-response",448,401805,"0.0-3.145-2.145","hoopxtschbda6wk",321,"141.csv","","null","resources/images/fishbone.png","null","",NA,NA,NA,NA,""
"image-keyboard-response",449,402115,"0.0-3.146-0.146","hoopxtschbda6wk",321,"141.csv","","308.20000000298023","resources/trios/L2T4A3.jpg","39","restless",0.7,0.8,0.6,0.659396873067366,"false"
"image-keyboard-response",450,402522,"0.0-3.146-1.146","hoopxtschbda6wk",321,"141.csv","","null","resources/maskTrios/BBA3.jpg","null","",NA,NA,NA,NA,""
"image-keyboard-response",451,403726,"0.0-3.146-2.146","hoopxtschbda6wk",321,"141.csv","","null","resources/images/fishbone.png","null","",NA,NA,NA,NA,""
"image-keyboard-response",452,405042,"0.0-3.147-0.147","hoopxtschbda6wk",321,"141.csv","","1314.2000000029802","resources/trios/L4T4A2.jpg","38","restless",0.7,0.8,0.6,0.119270749559189,"true"
"image-keyboard-response",453,405449,"0.0-3.147-1.147","hoopxtschbda6wk",321,"141.csv","","null","resources/maskTrios/BT4B.jpg","null","",NA,NA,NA,NA,""
"image-keyboard-response",454,406656,"0.0-3.147-2.147","hoopxtschbda6wk",321,"141.csv","","null","resources/images/coin2.png","null","",NA,NA,NA,NA,""
"image-keyboard-response",455,406956,"0.0-3.148-0.148","hoopxtschbda6wk",321,"141.csv","","298.79999999701977","resources/trios/L2T4A2.jpg","38","restless",0.7,0.8,0.6,0.23739808247627,"true"
"image-keyboard-response",456,407358,"0.0-3.148-1.148","hoopxtschbda6wk",321,"141.csv","","null","resources/maskTrios/BT4B.jpg","null","",NA,NA,NA,NA,""
"image-keyboard-response",457,408562,"0.0-3.148-2.148","hoopxtschbda6wk",321,"141.csv","","null","resources/images/coin2.png","null","",NA,NA,NA,NA,""
"image-keyboard-response",458,410042,"0.0-3.149-0.149","hoopxtschbda6wk",321,"141.csv","","1478.7000000029802","resources/trios/L2T4A2.jpg","37","restless",0.7,0.8,0.6,0.869449179519411,"false"
"image-keyboard-response",459,410449,"0.0-3.149-1.149","hoopxtschbda6wk",321,"141.csv","","null","resources/maskTrios/L2BB.jpg","null","",NA,NA,NA,NA,""
"image-keyboard-response",460,411655,"0.0-3.149-2.149","hoopxtschbda6wk",321,"141.csv","","null","resources/images/fishbone.png","null","",NA,NA,NA,NA,""
"image-keyboard-response",461,412332,"0.0-3.150-0.150","hoopxtschbda6wk",321,"141.csv","","675.2999999970198","resources/trios/L4T1A2.jpg","38","restless",0.7,0.8,0.6,0.486495954504682,"true"
"image-keyboard-response",462,412739,"0.0-3.150-1.150","hoopxtschbda6wk",321,"141.csv","","null","resources/maskTrios/BT1B.jpg","null","",NA,NA,NA,NA,""
"image-keyboard-response",463,413945,"0.0-3.150-2.150","hoopxtschbda6wk",321,"141.csv","","null","resources/images/coin2.png","null","",NA,NA,NA,NA,""
"image-keyboard-response",464,415001,"0.0-3.151-0.151","hoopxtschbda6wk",321,"141.csv","","1054.1000000089407","resources/trios/L2T4A2.jpg","38","restless",0.7,0.8,0.6,0.341343353795801,"true"
"image-keyboard-response",465,415405,"0.0-3.151-1.151","hoopxtschbda6wk",321,"141.csv","","null","resources/maskTrios/BT4B.jpg","null","",NA,NA,NA,NA,""
"image-keyboard-response",466,416612,"0.0-3.151-2.151","hoopxtschbda6wk",321,"141.csv","","null","resources/images/coin2.png","null","",NA,NA,NA,NA,""
"image-keyboard-response",467,417147,"0.0-3.152-0.152","hoopxtschbda6wk",321,"141.csv","","532.9000000059605","resources/trios/L4T4A2.jpg","37","restless",0.7,0.8,0.6,0.859186849347955,"false"
"image-keyboard-response",468,417551,"0.0-3.152-1.152","hoopxtschbda6wk",321,"141.csv","","null","resources/maskTrios/L4BB.jpg","null","",NA,NA,NA,NA,""
"image-keyboard-response",469,418753,"0.0-3.152-2.152","hoopxtschbda6wk",321,"141.csv","","null","resources/images/fishbone.png","null","",NA,NA,NA,NA,""
"image-keyboard-response",470,419109,"0.0-3.153-0.153","hoopxtschbda6wk",321,"141.csv","","354.69999998807907","resources/trios/L4T4A3.jpg","38","restless",0.7,0.8,0.6,0.34326738535505,"true"
"image-keyboard-response",471,419514,"0.0-3.153-1.153","hoopxtschbda6wk",321,"141.csv","","null","resources/maskTrios/BT4B.jpg","null","",NA,NA,NA,NA,""
"image-keyboard-response",472,420721,"0.0-3.153-2.153","hoopxtschbda6wk",321,"141.csv","","null","resources/images/coin2.png","null","",NA,NA,NA,NA,""
"image-keyboard-response",473,421653,"0.0-3.154-0.154","hoopxtschbda6wk",321,"141.csv","","930.1999999880791","resources/trios/L4T4A3.jpg","38","restless",0.7,0.8,0.6,0.769457998620695,"true"
"image-keyboard-response",474,422060,"0.0-3.154-1.154","hoopxtschbda6wk",321,"141.csv","","null","resources/maskTrios/BT4B.jpg","null","",NA,NA,NA,NA,""
"image-keyboard-response",475,423265,"0.0-3.154-2.154","hoopxtschbda6wk",321,"141.csv","","null","resources/images/coin2.png","null","",NA,NA,NA,NA,""
"image-keyboard-response",476,423729,"0.0-3.155-0.155","hoopxtschbda6wk",321,"141.csv","","462.59999999403954","resources/trios/L2T4A2.jpg","39","restless",0.7,0.8,0.6,0.467315685768361,"true"
"image-keyboard-response",477,424135,"0.0-3.155-1.155","hoopxtschbda6wk",321,"141.csv","","null","resources/maskTrios/BBA2.jpg","null","",NA,NA,NA,NA,""
"image-keyboard-response",478,425342,"0.0-3.155-2.155","hoopxtschbda6wk",321,"141.csv","","null","resources/images/coin2.png","null","",NA,NA,NA,NA,""
"image-keyboard-response",479,425792,"0.0-3.156-0.156","hoopxtschbda6wk",321,"141.csv","","448.3999999910593","resources/trios/L2T4A2.jpg","38","restless",0.7,0.8,0.6,0.834388141839223,"false"
"image-keyboard-response",480,426199,"0.0-3.156-1.156","hoopxtschbda6wk",321,"141.csv","","null","resources/maskTrios/BT4B.jpg","null","",NA,NA,NA,NA,""
"image-keyboard-response",481,427405,"0.0-3.156-2.156","hoopxtschbda6wk",321,"141.csv","","null","resources/images/fishbone.png","null","",NA,NA,NA,NA,""
"image-keyboard-response",482,427758,"0.0-3.157-0.157","hoopxtschbda6wk",321,"141.csv","","351.5","resources/trios/L4T1A2.jpg","38","restless",0.8,0.8,0.5,0.154644682451317,"true"
"image-keyboard-response",483,428164,"0.0-3.157-1.157","hoopxtschbda6wk",321,"141.csv","","null","resources/maskTrios/BT1B.jpg","null","",NA,NA,NA,NA,""
"image-keyboard-response",484,429371,"0.0-3.157-2.157","hoopxtschbda6wk",321,"141.csv","","null","resources/images/coin2.png","null","",NA,NA,NA,NA,""
"image-keyboard-response",485,429743,"0.0-3.158-0.158","hoopxtschbda6wk",321,"141.csv","","370.40000000596046","resources/trios/L4T4A3.jpg","38","restless",0.8,0.8,0.5,0.188837172126242,"true"
"image-keyboard-response",486,430150,"0.0-3.158-1.158","hoopxtschbda6wk",321,"141.csv","","null","resources/maskTrios/BT4B.jpg","null","",NA,NA,NA,NA,""
"image-keyboard-response",487,431352,"0.0-3.158-2.158","hoopxtschbda6wk",321,"141.csv","","null","resources/images/coin2.png","null","",NA,NA,NA,NA,""
"image-keyboard-response",488,432141,"0.0-3.159-0.159","hoopxtschbda6wk",321,"141.csv","","787","resources/trios/L2T1A3.jpg","39","restless",0.8,0.8,0.5,0.58960001729393,"false"
"image-keyboard-response",489,432545,"0.0-3.159-1.159","hoopxtschbda6wk",321,"141.csv","","null","resources/maskTrios/BBA3.jpg","null","",NA,NA,NA,NA,""
"image-keyboard-response",490,433750,"0.0-3.159-2.159","hoopxtschbda6wk",321,"141.csv","","null","resources/images/fishbone.png","null","",NA,NA,NA,NA,""
"image-keyboard-response",491,434220,"0.0-3.160-0.160","hoopxtschbda6wk",321,"141.csv","","468.79999999701977","resources/trios/L2T4A2.jpg","38","restless",0.8,0.8,0.5,0.590366211013857,"true"
"image-keyboard-response",492,434627,"0.0-3.160-1.160","hoopxtschbda6wk",321,"141.csv","","null","resources/maskTrios/BT4B.jpg","null","",NA,NA,NA,NA,""
"image-keyboard-response",493,435833,"0.0-3.160-2.160","hoopxtschbda6wk",321,"141.csv","","null","resources/images/coin2.png","null","",NA,NA,NA,NA,""
"image-keyboard-response",494,436147,"0.0-3.161-0.161","hoopxtschbda6wk",321,"141.csv","","311.90000000596046","resources/trios/L2T1A2.jpg","38","restless",0.8,0.8,0.6,0.155257501974027,"true"
"image-keyboard-response",495,436553,"0.0-3.161-1.161","hoopxtschbda6wk",321,"141.csv","","null","resources/maskTrios/BT1B.jpg","null","",NA,NA,NA,NA,""
"image-keyboard-response",496,437758,"0.0-3.161-2.161","hoopxtschbda6wk",321,"141.csv","","null","resources/images/coin2.png","null","",NA,NA,NA,NA,""
"image-keyboard-response",497,440009,"0.0-3.162-0.162","hoopxtschbda6wk",321,"141.csv","","2249.2999999970198","resources/trios/L2T1A3.jpg","37","restless",0.8,0.8,0.6,0.693360012772105,"true"
"image-keyboard-response",498,440415,"0.0-3.162-1.162","hoopxtschbda6wk",321,"141.csv","","null","resources/maskTrios/L2BB.jpg","null","",NA,NA,NA,NA,""
"image-keyboard-response",499,441618,"0.0-3.162-2.162","hoopxtschbda6wk",321,"141.csv","","null","resources/images/coin2.png","null","",NA,NA,NA,NA,""
"image-keyboard-response",500,442743,"0.0-3.163-0.163","hoopxtschbda6wk",321,"141.csv","","1122.9000000059605","resources/trios/L2T1A3.jpg","37","restless",0.7,0.8,0.6,0.320382975987384,"true"
"image-keyboard-response",501,443150,"0.0-3.163-1.163","hoopxtschbda6wk",321,"141.csv","","null","resources/maskTrios/L2BB.jpg","null","",NA,NA,NA,NA,""
"image-keyboard-response",502,444352,"0.0-3.163-2.163","hoopxtschbda6wk",321,"141.csv","","null","resources/images/coin2.png","null","",NA,NA,NA,NA,""
"image-keyboard-response",503,444784,"0.0-3.164-0.164","hoopxtschbda6wk",321,"141.csv","","429.59999999403954","resources/trios/L4T4A2.jpg","38","restless",0.7,0.8,0.6,0.0236412851424062,"true"
"image-keyboard-response",504,445190,"0.0-3.164-1.164","hoopxtschbda6wk",321,"141.csv","","null","resources/maskTrios/BT4B.jpg","null","",NA,NA,NA,NA,""
"image-keyboard-response",505,446394,"0.0-3.164-2.164","hoopxtschbda6wk",321,"141.csv","","null","resources/images/coin2.png","null","",NA,NA,NA,NA,""
"image-keyboard-response",506,447056,"0.0-3.165-0.165","hoopxtschbda6wk",321,"141.csv","","660.5","resources/trios/L2T1A3.jpg","38","restless",0.7,0.8,0.6,0.668550305551725,"true"
"image-keyboard-response",507,447461,"0.0-3.165-1.165","hoopxtschbda6wk",321,"141.csv","","null","resources/maskTrios/BT1B.jpg","null","",NA,NA,NA,NA,""
"image-keyboard-response",508,448665,"0.0-3.165-2.165","hoopxtschbda6wk",321,"141.csv","","null","resources/images/coin2.png","null","",NA,NA,NA,NA,""
"image-keyboard-response",509,449150,"0.0-3.166-0.166","hoopxtschbda6wk",321,"141.csv","","483","resources/trios/L2T1A2.jpg","39","restless",0.7,0.7,0.6,0.48120536553133,"true"
"image-keyboard-response",510,449556,"0.0-3.166-1.166","hoopxtschbda6wk",321,"141.csv","","null","resources/maskTrios/BBA2.jpg","null","",NA,NA,NA,NA,""
"image-keyboard-response",511,450761,"0.0-3.166-2.166","hoopxtschbda6wk",321,"141.csv","","null","resources/images/coin2.png","null","",NA,NA,NA,NA,""
"image-keyboard-response",512,451066,"0.0-3.167-0.167","hoopxtschbda6wk",321,"141.csv","","303.79999999701977","resources/trios/L2T1A3.jpg","39","restless",0.7,0.7,0.6,0.580150502305418,"true"
"image-keyboard-response",513,451471,"0.0-3.167-1.167","hoopxtschbda6wk",321,"141.csv","","null","resources/maskTrios/BBA3.jpg","null","",NA,NA,NA,NA,""
"image-keyboard-response",514,452678,"0.0-3.167-2.167","hoopxtschbda6wk",321,"141.csv","","null","resources/images/coin2.png","null","",NA,NA,NA,NA,""
"image-keyboard-response",515,453007,"0.0-3.168-0.168","hoopxtschbda6wk",321,"141.csv","","327.1000000089407","resources/trios/L2T4A3.jpg","38","restless",0.7,0.7,0.6,0.18265892700276,"true"
"image-keyboard-response",516,453413,"0.0-3.168-1.168","hoopxtschbda6wk",321,"141.csv","","null","resources/maskTrios/BT4B.jpg","null","",NA,NA,NA,NA,""
"image-keyboard-response",517,454620,"0.0-3.168-2.168","hoopxtschbda6wk",321,"141.csv","","null","resources/images/coin2.png","null","",NA,NA,NA,NA,""
"image-keyboard-response",518,454924,"0.0-3.169-0.169","hoopxtschbda6wk",321,"141.csv","","302.20000000298023","resources/trios/L2T4A2.jpg","38","restless",0.7,0.7,0.6,0.538646939801759,"true"
"image-keyboard-response",519,455330,"0.0-3.169-1.169","hoopxtschbda6wk",321,"141.csv","","null","resources/maskTrios/BT4B.jpg","null","",NA,NA,NA,NA,""
"image-keyboard-response",520,456537,"0.0-3.169-2.169","hoopxtschbda6wk",321,"141.csv","","null","resources/images/coin2.png","null","",NA,NA,NA,NA,""
"image-keyboard-response",521,456828,"0.0-3.170-0.170","hoopxtschbda6wk",321,"141.csv","","289.59999999403954","resources/trios/L2T4A3.jpg","37","restless",0.6,0.7,0.5,0.718757945478767,"false"
"image-keyboard-response",522,457235,"0.0-3.170-1.170","hoopxtschbda6wk",321,"141.csv","","null","resources/maskTrios/L2BB.jpg","null","",NA,NA,NA,NA,""
"image-keyboard-response",523,458441,"0.0-3.170-2.170","hoopxtschbda6wk",321,"141.csv","","null","resources/images/fishbone.png","null","",NA,NA,NA,NA,""
"image-keyboard-response",524,458962,"0.0-3.171-0.171","hoopxtschbda6wk",321,"141.csv","","519.0999999940395","resources/trios/L2T1A3.jpg","38","restless",0.6,0.7,0.5,0.700866559267277,"false"
"image-keyboard-response",525,459364,"0.0-3.171-1.171","hoopxtschbda6wk",321,"141.csv","","null","resources/maskTrios/BT1B.jpg","null","",NA,NA,NA,NA,""
"image-keyboard-response",526,460566,"0.0-3.171-2.171","hoopxtschbda6wk",321,"141.csv","","null","resources/images/fishbone.png","null","",NA,NA,NA,NA,""
"image-keyboard-response",527,461578,"0.0-3.172-0.172","hoopxtschbda6wk",321,"141.csv","","1010.7000000029802","resources/trios/L4T4A2.jpg","39","restless",0.6,0.7,0.5,0.751413263069481,"false"
"image-keyboard-response",528,461985,"0.0-3.172-1.172","hoopxtschbda6wk",321,"141.csv","","null","resources/maskTrios/BBA2.jpg","null","",NA,NA,NA,NA,""
"image-keyboard-response",529,463191,"0.0-3.172-2.172","hoopxtschbda6wk",321,"141.csv","","null","resources/images/fishbone.png","null","",NA,NA,NA,NA,""
"image-keyboard-response",530,463608,"0.0-3.173-0.173","hoopxtschbda6wk",321,"141.csv","","414.69999998807907","resources/trios/L4T1A3.jpg","38","restless",0.6,0.7,0.5,0.813094408648412,"false"
"image-keyboard-response",531,464014,"0.0-3.173-1.173","hoopxtschbda6wk",321,"141.csv","","null","resources/maskTrios/BT1B.jpg","null","",NA,NA,NA,NA,""
"image-keyboard-response",532,465216,"0.0-3.173-2.173","hoopxtschbda6wk",321,"141.csv","","null","resources/images/fishbone.png","null","",NA,NA,NA,NA,""
"image-keyboard-response",533,465551,"0.0-3.174-0.174","hoopxtschbda6wk",321,"141.csv","","333.40000000596046","resources/trios/L2T1A3.jpg","37","restless",0.6,0.7,0.5,0.0422018827089792,"true"
"image-keyboard-response",534,465957,"0.0-3.174-1.174","hoopxtschbda6wk",321,"141.csv","","null","resources/maskTrios/L2BB.jpg","null","",NA,NA,NA,NA,""
"image-keyboard-response",535,467164,"0.0-3.174-2.174","hoopxtschbda6wk",321,"141.csv","","null","resources/images/coin2.png","null","",NA,NA,NA,NA,""
"image-keyboard-response",536,467516,"0.0-3.175-0.175","hoopxtschbda6wk",321,"141.csv","","350.19999998807907","resources/trios/L4T1A2.jpg","37","restless",0.6,0.7,0.5,0.317707675904748,"true"
"image-keyboard-response",537,467919,"0.0-3.175-1.175","hoopxtschbda6wk",321,"141.csv","","null","resources/maskTrios/L4BB.jpg","null","",NA,NA,NA,NA,""
"image-keyboard-response",538,469126,"0.0-3.175-2.175","hoopxtschbda6wk",321,"141.csv","","null","resources/images/coin2.png","null","",NA,NA,NA,NA,""
"image-keyboard-response",539,469948,"0.0-3.176-0.176","hoopxtschbda6wk",321,"141.csv","","820","resources/trios/L2T4A2.jpg","38","restless",0.6,0.7,0.5,0.203767996455176,"true"
"image-keyboard-response",540,470354,"0.0-3.176-1.176","hoopxtschbda6wk",321,"141.csv","","null","resources/maskTrios/BT4B.jpg","null","",NA,NA,NA,NA,""
"image-keyboard-response",541,471560,"0.0-3.176-2.176","hoopxtschbda6wk",321,"141.csv","","null","resources/images/coin2.png","null","",NA,NA,NA,NA,""
"image-keyboard-response",542,471835,"0.0-3.177-0.177","hoopxtschbda6wk",321,"141.csv","","273","resources/trios/L2T4A3.jpg","38","restless",0.6,0.7,0.6,0.180678075344756,"true"
"image-keyboard-response",543,472241,"0.0-3.177-1.177","hoopxtschbda6wk",321,"141.csv","","null","resources/maskTrios/BT4B.jpg","null","",NA,NA,NA,NA,""
"image-keyboard-response",544,473444,"0.0-3.177-2.177","hoopxtschbda6wk",321,"141.csv","","null","resources/images/coin2.png","null","",NA,NA,NA,NA,""
"image-keyboard-response",545,473718,"0.0-3.178-0.178","hoopxtschbda6wk",321,"141.csv","","272.40000000596046","resources/trios/L2T1A2.jpg","39","restless",0.7,0.7,0.6,0.0719567347919869,"true"
"image-keyboard-response",546,474124,"0.0-3.178-1.178","hoopxtschbda6wk",321,"141.csv","","null","resources/maskTrios/BBA2.jpg","null","",NA,NA,NA,NA,""
"image-keyboard-response",547,475329,"0.0-3.178-2.178","hoopxtschbda6wk",321,"141.csv","","null","resources/images/coin2.png","null","",NA,NA,NA,NA,""
"image-keyboard-response",548,475600,"0.0-3.179-0.179","hoopxtschbda6wk",321,"141.csv","","269.40000000596046","resources/trios/L4T1A2.jpg","39","restless",0.7,0.7,0.6,0.617683515803724,"false"
"image-keyboard-response",549,476006,"0.0-3.179-1.179","hoopxtschbda6wk",321,"141.csv","","null","resources/maskTrios/BBA2.jpg","null","",NA,NA,NA,NA,""
"image-keyboard-response",550,477212,"0.0-3.179-2.179","hoopxtschbda6wk",321,"141.csv","","null","resources/images/fishbone.png","null","",NA,NA,NA,NA,""
"image-keyboard-response",551,477543,"0.0-3.180-0.180","hoopxtschbda6wk",321,"141.csv","","329.29999999701977","resources/trios/L2T4A3.jpg","38","restless",0.7,0.7,0.6,0.210962558267444,"true"
"image-keyboard-response",552,477949,"0.0-3.180-1.180","hoopxtschbda6wk",321,"141.csv","","null","resources/maskTrios/BT4B.jpg","null","",NA,NA,NA,NA,""
"image-keyboard-response",553,479156,"0.0-3.180-2.180","hoopxtschbda6wk",321,"141.csv","","null","resources/images/coin2.png","null","",NA,NA,NA,NA,""
"image-keyboard-response",554,479425,"0.0-3.181-0.181","hoopxtschbda6wk",321,"141.csv","","267.19999998807907","resources/trios/L4T4A3.jpg","38","restless",0.7,0.6,0.6,0.649382898215311,"false"
"image-keyboard-response",555,479831,"0.0-3.181-1.181","hoopxtschbda6wk",321,"141.csv","","null","resources/maskTrios/BT4B.jpg","null","",NA,NA,NA,NA,""
"image-keyboard-response",556,481036,"0.0-3.181-2.181","hoopxtschbda6wk",321,"141.csv","","null","resources/images/fishbone.png","null","",NA,NA,NA,NA,""
"image-keyboard-response",557,481358,"0.0-3.182-0.182","hoopxtschbda6wk",321,"141.csv","","320.09999999403954","resources/trios/L2T4A2.jpg","37","restless",0.7,0.6,0.6,0.867237069274503,"false"
"image-keyboard-response",558,481763,"0.0-3.182-1.182","hoopxtschbda6wk",321,"141.csv","","null","resources/maskTrios/L2BB.jpg","null","",NA,NA,NA,NA,""
"image-keyboard-response",559,482967,"0.0-3.182-2.182","hoopxtschbda6wk",321,"141.csv","","null","resources/images/fishbone.png","null","",NA,NA,NA,NA,""
"image-keyboard-response",560,483267,"0.0-3.183-0.183","hoopxtschbda6wk",321,"141.csv","","298.5","resources/trios/L4T1A3.jpg","39","restless",0.7,0.6,0.6,0.211818302549297,"true"
"image-keyboard-response",561,483674,"0.0-3.183-1.183","hoopxtschbda6wk",321,"141.csv","","null","resources/maskTrios/BBA3.jpg","null","",NA,NA,NA,NA,""
"image-keyboard-response",562,484878,"0.0-3.183-2.183","hoopxtschbda6wk",321,"141.csv","","null","resources/images/coin2.png","null","",NA,NA,NA,NA,""
"image-keyboard-response",563,485205,"0.0-3.184-0.184","hoopxtschbda6wk",321,"141.csv","","324.79999999701977","resources/trios/L4T1A2.jpg","39","restless",0.7,0.6,0.6,0.102822334414868,"true"
"image-keyboard-response",564,485612,"0.0-3.184-1.184","hoopxtschbda6wk",321,"141.csv","","null","resources/maskTrios/BBA2.jpg","null","",NA,NA,NA,NA,""
"image-keyboard-response",565,486818,"0.0-3.184-2.184","hoopxtschbda6wk",321,"141.csv","","null","resources/images/coin2.png","null","",NA,NA,NA,NA,""
"image-keyboard-response",566,487961,"0.0-3.185-0.185","hoopxtschbda6wk",321,"141.csv","","1140.5999999940395","resources/trios/L2T1A2.jpg","37","restless",0.8,0.6,0.7,0.697633308368632,"true"
"image-keyboard-response",567,488366,"0.0-3.185-1.185","hoopxtschbda6wk",321,"141.csv","","null","resources/maskTrios/L2BB.jpg","null","",NA,NA,NA,NA,""
"image-keyboard-response",568,489573,"0.0-3.185-2.185","hoopxtschbda6wk",321,"141.csv","","null","resources/images/coin2.png","null","",NA,NA,NA,NA,""
"image-keyboard-response",569,490070,"0.0-3.186-0.186","hoopxtschbda6wk",321,"141.csv","","495.69999998807907","resources/trios/L2T4A2.jpg","37","restless",0.8,0.6,0.7,0.336620483016586,"true"
"image-keyboard-response",570,490476,"0.0-3.186-1.186","hoopxtschbda6wk",321,"141.csv","","null","resources/maskTrios/L2BB.jpg","null","",NA,NA,NA,NA,""
"image-keyboard-response",571,491681,"0.0-3.186-2.186","hoopxtschbda6wk",321,"141.csv","","null","resources/images/coin2.png","null","",NA,NA,NA,NA,""
"image-keyboard-response",572,492128,"0.0-3.187-0.187","hoopxtschbda6wk",321,"141.csv","","444.40000000596046","resources/trios/L4T1A3.jpg","38","restless",0.8,0.6,0.8,0.824719401018755,"false"
"image-keyboard-response",573,492530,"0.0-3.187-1.187","hoopxtschbda6wk",321,"141.csv","","null","resources/maskTrios/BT1B.jpg","null","",NA,NA,NA,NA,""
"image-keyboard-response",574,493733,"0.0-3.187-2.187","hoopxtschbda6wk",321,"141.csv","","null","resources/images/fishbone.png","null","",NA,NA,NA,NA,""
"image-keyboard-response",575,494023,"0.0-3.188-0.188","hoopxtschbda6wk",321,"141.csv","","288.5","resources/trios/L4T1A2.jpg","39","restless",0.8,0.6,0.8,0.00433166457498357,"true"
"image-keyboard-response",576,494429,"0.0-3.188-1.188","hoopxtschbda6wk",321,"141.csv","","null","resources/maskTrios/BBA2.jpg","null","",NA,NA,NA,NA,""
"image-keyboard-response",577,495636,"0.0-3.188-2.188","hoopxtschbda6wk",321,"141.csv","","null","resources/images/coin2.png","null","",NA,NA,NA,NA,""
"image-keyboard-response",578,495909,"0.0-3.189-0.189","hoopxtschbda6wk",321,"141.csv","","270.70000000298023","resources/trios/L4T1A3.jpg","39","restless",0.8,0.6,0.7,0.380102780700304,"true"
"image-keyboard-response",579,496315,"0.0-3.189-1.189","hoopxtschbda6wk",321,"141.csv","","null","resources/maskTrios/BBA3.jpg","null","",NA,NA,NA,NA,""
"image-keyboard-response",580,497517,"0.0-3.189-2.189","hoopxtschbda6wk",321,"141.csv","","null","resources/images/coin2.png","null","",NA,NA,NA,NA,""
"image-keyboard-response",581,497877,"0.0-3.190-0.190","hoopxtschbda6wk",321,"141.csv","","357.6000000089407","resources/trios/L4T4A2.jpg","37","restless",0.8,0.6,0.7,0.342466009699708,"true"
"image-keyboard-response",582,498279,"0.0-3.190-1.190","hoopxtschbda6wk",321,"141.csv","","null","resources/maskTrios/L4BB.jpg","null","",NA,NA,NA,NA,""
"image-keyboard-response",583,499486,"0.0-3.190-2.190","hoopxtschbda6wk",321,"141.csv","","null","resources/images/coin2.png","null","",NA,NA,NA,NA,""
"image-keyboard-response",584,499750,"0.0-3.191-0.191","hoopxtschbda6wk",321,"141.csv","","262.3999999910593","resources/trios/L2T4A3.jpg","37","restless",0.9,0.6,0.7,0.377974359897113,"true"
"image-keyboard-response",585,500156,"0.0-3.191-1.191","hoopxtschbda6wk",321,"141.csv","","null","resources/maskTrios/L2BB.jpg","null","",NA,NA,NA,NA,""
"image-keyboard-response",586,501361,"0.0-3.191-2.191","hoopxtschbda6wk",321,"141.csv","","null","resources/images/coin2.png","null","",NA,NA,NA,NA,""
"image-keyboard-response",587,501645,"0.0-3.192-0.192","hoopxtschbda6wk",321,"141.csv","","281.5","resources/trios/L2T4A3.jpg","39","restless",0.9,0.5,0.7,0.630945604177768,"true"
"image-keyboard-response",588,502051,"0.0-3.192-1.192","hoopxtschbda6wk",321,"141.csv","","null","resources/maskTrios/BBA3.jpg","null","",NA,NA,NA,NA,""
"image-keyboard-response",589,503258,"0.0-3.192-2.192","hoopxtschbda6wk",321,"141.csv","","null","resources/images/coin2.png","null","",NA,NA,NA,NA,""
"image-keyboard-response",590,503574,"0.0-3.193-0.193","hoopxtschbda6wk",321,"141.csv","","314.1000000089407","resources/trios/L4T4A3.jpg","39","restless",0.9,0.5,0.7,0.211616346795301,"true"
"image-keyboard-response",591,503980,"0.0-3.193-1.193","hoopxtschbda6wk",321,"141.csv","","null","resources/maskTrios/BBA3.jpg","null","",NA,NA,NA,NA,""
"image-keyboard-response",592,505184,"0.0-3.193-2.193","hoopxtschbda6wk",321,"141.csv","","null","resources/images/coin2.png","null","",NA,NA,NA,NA,""
"image-keyboard-response",593,505678,"0.0-3.194-0.194","hoopxtschbda6wk",321,"141.csv","","492.09999999403954","resources/trios/L4T4A3.jpg","37","restless",0.9,0.5,0.7,0.640338003642552,"true"
"image-keyboard-response",594,506084,"0.0-3.194-1.194","hoopxtschbda6wk",321,"141.csv","","null","resources/maskTrios/L4BB.jpg","null","",NA,NA,NA,NA,""
"image-keyboard-response",595,507291,"0.0-3.194-2.194","hoopxtschbda6wk",321,"141.csv","","null","resources/images/coin2.png","null","",NA,NA,NA,NA,""
"image-keyboard-response",596,507587,"0.0-3.195-0.195","hoopxtschbda6wk",321,"141.csv","","294.8999999910593","resources/trios/L4T1A3.jpg","37","restless",0.9,0.5,0.6,0.0572341592910766,"true"
"image-keyboard-response",597,507994,"0.0-3.195-1.195","hoopxtschbda6wk",321,"141.csv","","null","resources/maskTrios/L4BB.jpg","null","",NA,NA,NA,NA,""
"image-keyboard-response",598,509201,"0.0-3.195-2.195","hoopxtschbda6wk",321,"141.csv","","null","resources/images/coin2.png","null","",NA,NA,NA,NA,""
"image-keyboard-response",599,509485,"0.0-3.196-0.196","hoopxtschbda6wk",321,"141.csv","","283.19999998807907","resources/trios/L2T4A3.jpg","39","restless",0.9,0.5,0.6,0.754814297129459,"false"
"image-keyboard-response",600,509889,"0.0-3.196-1.196","hoopxtschbda6wk",321,"141.csv","","null","resources/maskTrios/BBA3.jpg","null","",NA,NA,NA,NA,""
"image-keyboard-response",601,511092,"0.0-3.196-2.196","hoopxtschbda6wk",321,"141.csv","","null","resources/images/fishbone.png","null","",NA,NA,NA,NA,""
"image-keyboard-response",602,511382,"0.0-3.197-0.197","hoopxtschbda6wk",321,"141.csv","","288.5","resources/trios/L2T1A2.jpg","38","restless",0.9,0.5,0.5,0.904733518903537,"false"
"image-keyboard-response",603,511789,"0.0-3.197-1.197","hoopxtschbda6wk",321,"141.csv","","null","resources/maskTrios/BT1B.jpg","null","",NA,NA,NA,NA,""
"image-keyboard-response",604,512995,"0.0-3.197-2.197","hoopxtschbda6wk",321,"141.csv","","null","resources/images/fishbone.png","null","",NA,NA,NA,NA,""
"image-keyboard-response",605,513289,"0.0-3.198-0.198","hoopxtschbda6wk",321,"141.csv","","292.20000000298023","resources/trios/L4T1A2.jpg","37","restless",0.9,0.4,0.5,0.811895048619677,"true"
