"trial_type","trial_index","time_elapsed","internal_node_id","subject","participantCode","walkNumber","success","rt","stimulus","key_press","test_part","leftProb","midProb","rightProb","generatedNum","correct"
"pavlovia",0,1034,"0.0-0.0","2sw0rumdd9l9256",847,"128.csv","","","","","",NA,NA,NA,NA,""
"fullscreen",1,5021,"0.0-1.0","2sw0rumdd9l9256",847,"128.csv","true","","","","",NA,NA,NA,NA,""
"html-keyboard-response",2,14266,"0.0-2.0-0.0","2sw0rumdd9l9256",847,"128.csv","","9243.59999999404","<p><font size='6'>Arrrgh!</p></font><p>Can you be the best pirate? Try to find lots of gold! But beware, some islands have more gold than others, and over time, the island with the most gold may change. Can YOU figure it out? </p><font size='6'>GOOD LUCK, CAPTAIN!!!</font><p>Press any key to begin</p>","13","",NA,NA,NA,NA,""
"image-keyboard-response",3,17273,"0.0-2.0-1.0","2sw0rumdd9l9256",847,"128.csv","","null","resources/image_sets/111.png","null","",NA,NA,NA,NA,""
"image-keyboard-response",4,24620,"0.0-2.0-2.0","2sw0rumdd9l9256",847,"128.csv","","7346","resources/image_sets/left_highlight.png","37","",NA,NA,NA,NA,""
"image-keyboard-response",5,26055,"0.0-2.0-3.0","2sw0rumdd9l9256",847,"128.csv","","1433.199999988079","resources/image_sets/mid_highlight.png","38","",NA,NA,NA,NA,""
"image-keyboard-response",6,26636,"0.0-2.0-4.0","2sw0rumdd9l9256",847,"128.csv","","580.2999999821186","resources/image_sets/right_highlight.png","39","",NA,NA,NA,NA,""
"image-keyboard-response",7,29861,"0.0-2.0-5.0","2sw0rumdd9l9256",847,"128.csv","","3225.9000000059605","resources/image_sets/111.png","13","",NA,NA,NA,NA,""
"image-keyboard-response",8,33003,"0.0-2.0-6.0","2sw0rumdd9l9256",847,"128.csv","","3147.7000000178814","resources/images/coin2.png","13","",NA,NA,NA,NA,""
"image-keyboard-response",9,35571,"0.0-2.0-7.0","2sw0rumdd9l9256",847,"128.csv","","2571.699999988079","resources/images/fishbone.png","13","",NA,NA,NA,NA,""
"html-keyboard-response",10,42322,"0.0-2.0-8.0","2sw0rumdd9l9256",847,"128.csv","","6759.0999999940395","<p>Your first journey will be a long one, but you will get a well deserved break at the end</p><p>After the break you will have four more journeys, but each will be much shorter than the first, and you will have breaks in between each</p><p>Press Enter to begin</p>","13","",NA,NA,NA,NA,""
"image-keyboard-response",11,45047,"0.0-3.0-0.0","2sw0rumdd9l9256",847,"128.csv","","2727.0999999940395","resources/trios/L4T1A2.jpg","38","restless",0.9,0.3,0.7,0.918993421060687,"false"
"image-keyboard-response",12,45455,"0.0-3.0-1.0","2sw0rumdd9l9256",847,"128.csv","","null","resources/maskTrios/BT1B.jpg","null","",NA,NA,NA,NA,""
"image-keyboard-response",13,46661,"0.0-3.0-2.0","2sw0rumdd9l9256",847,"128.csv","","null","resources/images/fishbone.png","null","",NA,NA,NA,NA,""
"image-keyboard-response",14,47647,"0.0-3.1-0.1","2sw0rumdd9l9256",847,"128.csv","","985.5","resources/trios/L1T1A2.jpg","37","restless",0.9,0.3,0.7,0.133424585313948,"true"
"image-keyboard-response",15,48054,"0.0-3.1-1.1","2sw0rumdd9l9256",847,"128.csv","","null","resources/maskTrios/L1BB.jpg","null","",NA,NA,NA,NA,""
"image-keyboard-response",16,49260,"0.0-3.1-2.1","2sw0rumdd9l9256",847,"128.csv","","null","resources/images/coin2.png","null","",NA,NA,NA,NA,""
"image-keyboard-response",17,50611,"0.0-3.2-0.2","2sw0rumdd9l9256",847,"128.csv","","1351.0999999940395","resources/trios/L1T1A1.jpg","39","restless",0.9,0.3,0.7,0.463665633429804,"true"
"image-keyboard-response",18,51018,"0.0-3.2-1.2","2sw0rumdd9l9256",847,"128.csv","","null","resources/maskTrios/BBA1.jpg","null","",NA,NA,NA,NA,""
"image-keyboard-response",19,52223,"0.0-3.2-2.2","2sw0rumdd9l9256",847,"128.csv","","null","resources/images/coin2.png","null","",NA,NA,NA,NA,""
"image-keyboard-response",20,53294,"0.0-3.3-0.3","2sw0rumdd9l9256",847,"128.csv","","1069.4000000059605","resources/trios/L1T2A2.jpg","38","restless",0.9,0.2,0.7,0.0154959430221981,"true"
"image-keyboard-response",21,53700,"0.0-3.3-1.3","2sw0rumdd9l9256",847,"128.csv","","null","resources/maskTrios/BT2B.jpg","null","",NA,NA,NA,NA,""
"image-keyboard-response",22,54901,"0.0-3.3-2.3","2sw0rumdd9l9256",847,"128.csv","","null","resources/images/coin2.png","null","",NA,NA,NA,NA,""
"image-keyboard-response",23,55521,"0.0-3.4-0.4","2sw0rumdd9l9256",847,"128.csv","","618.9000000059605","resources/trios/L4T2A2.jpg","37","restless",0.9,0.2,0.7,0.924559045949032,"false"
"image-keyboard-response",24,55927,"0.0-3.4-1.4","2sw0rumdd9l9256",847,"128.csv","","null","resources/maskTrios/L4BB.jpg","null","",NA,NA,NA,NA,""
"image-keyboard-response",25,57133,"0.0-3.4-2.4","2sw0rumdd9l9256",847,"128.csv","","null","resources/images/fishbone.png","null","",NA,NA,NA,NA,""
"image-keyboard-response",26,57461,"0.0-3.5-0.5","2sw0rumdd9l9256",847,"128.csv","","326.89999997615814","resources/trios/L1T2A2.jpg","39","restless",0.9,0.2,0.7,0.312812285996614,"true"
"image-keyboard-response",27,57863,"0.0-3.5-1.5","2sw0rumdd9l9256",847,"128.csv","","null","resources/maskTrios/BBA2.jpg","null","",NA,NA,NA,NA,""
"image-keyboard-response",28,59066,"0.0-3.5-2.5","2sw0rumdd9l9256",847,"128.csv","","null","resources/images/coin2.png","null","",NA,NA,NA,NA,""
"image-keyboard-response",29,59577,"0.0-3.6-0.6","2sw0rumdd9l9256",847,"128.csv","","509.90000000596046","resources/trios/L4T2A2.jpg","38","restless",0.9,0.2,0.7,0.0286364264704289,"true"
"image-keyboard-response",30,59982,"0.0-3.6-1.6","2sw0rumdd9l9256",847,"128.csv","","null","resources/maskTrios/BT2B.jpg","null","",NA,NA,NA,NA,""
"image-keyboard-response",31,61188,"0.0-3.6-2.6","2sw0rumdd9l9256",847,"128.csv","","null","resources/images/coin2.png","null","",NA,NA,NA,NA,""
"image-keyboard-response",32,61989,"0.0-3.7-0.7","2sw0rumdd9l9256",847,"128.csv","","799.7999999821186","resources/trios/L1T1A1.jpg","37","restless",0.9,0.2,0.7,0.427253496227397,"true"
"image-keyboard-response",33,62396,"0.0-3.7-1.7","2sw0rumdd9l9256",847,"128.csv","","null","resources/maskTrios/L1BB.jpg","null","",NA,NA,NA,NA,""
"image-keyboard-response",34,63602,"0.0-3.7-2.7","2sw0rumdd9l9256",847,"128.csv","","null","resources/images/coin2.png","null","",NA,NA,NA,NA,""
"image-keyboard-response",35,64034,"0.0-3.8-0.8","2sw0rumdd9l9256",847,"128.csv","","430.5","resources/trios/L4T1A1.jpg","39","restless",0.9,0.2,0.7,0.560907131816542,"true"
"image-keyboard-response",36,64441,"0.0-3.8-1.8","2sw0rumdd9l9256",847,"128.csv","","null","resources/maskTrios/BBA1.jpg","null","",NA,NA,NA,NA,""
"image-keyboard-response",37,65647,"0.0-3.8-2.8","2sw0rumdd9l9256",847,"128.csv","","null","resources/images/coin2.png","null","",NA,NA,NA,NA,""
"image-keyboard-response",38,65952,"0.0-3.9-0.9","2sw0rumdd9l9256",847,"128.csv","","303.90000000596046","resources/trios/L1T2A1.jpg","38","restless",0.9,0.2,0.7,0.455794543968512,"false"
"image-keyboard-response",39,66358,"0.0-3.9-1.9","2sw0rumdd9l9256",847,"128.csv","","null","resources/maskTrios/BT2B.jpg","null","",NA,NA,NA,NA,""
"image-keyboard-response",40,67562,"0.0-3.9-2.9","2sw0rumdd9l9256",847,"128.csv","","null","resources/images/fishbone.png","null","",NA,NA,NA,NA,""
"image-keyboard-response",41,67841,"0.0-3.10-0.10","2sw0rumdd9l9256",847,"128.csv","","277.19999998807907","resources/trios/L1T1A2.jpg","37","restless",0.9,0.2,0.7,0.724034609119783,"true"
"image-keyboard-response",42,68246,"0.0-3.10-1.10","2sw0rumdd9l9256",847,"128.csv","","null","resources/maskTrios/L1BB.jpg","null","",NA,NA,NA,NA,""
"image-keyboard-response",43,69452,"0.0-3.10-2.10","2sw0rumdd9l9256",847,"128.csv","","null","resources/images/coin2.png","null","",NA,NA,NA,NA,""
"image-keyboard-response",44,69776,"0.0-3.11-0.11","2sw0rumdd9l9256",847,"128.csv","","322.2000000178814","resources/trios/L1T1A1.jpg","38","restless",0.9,0.2,0.7,0.836594236309224,"false"
"image-keyboard-response",45,70183,"0.0-3.11-1.11","2sw0rumdd9l9256",847,"128.csv","","null","resources/maskTrios/BT1B.jpg","null","",NA,NA,NA,NA,""
"image-keyboard-response",46,71389,"0.0-3.11-2.11","2sw0rumdd9l9256",847,"128.csv","","null","resources/images/fishbone.png","null","",NA,NA,NA,NA,""
"image-keyboard-response",47,71640,"0.0-3.12-0.12","2sw0rumdd9l9256",847,"128.csv","","249.69999998807907","resources/trios/L1T1A2.jpg","39","restless",0.9,0.2,0.8,0.335050086214993,"true"
"image-keyboard-response",48,72046,"0.0-3.12-1.12","2sw0rumdd9l9256",847,"128.csv","","null","resources/maskTrios/BBA2.jpg","null","",NA,NA,NA,NA,""
"image-keyboard-response",49,73252,"0.0-3.12-2.12","2sw0rumdd9l9256",847,"128.csv","","null","resources/images/coin2.png","null","",NA,NA,NA,NA,""
"image-keyboard-response",50,73559,"0.0-3.13-0.13","2sw0rumdd9l9256",847,"128.csv","","305.19999998807907","resources/trios/L4T2A2.jpg","37","restless",0.9,0.2,0.7,0.468194802066541,"true"
"image-keyboard-response",51,73965,"0.0-3.13-1.13","2sw0rumdd9l9256",847,"128.csv","","null","resources/maskTrios/L4BB.jpg","null","",NA,NA,NA,NA,""
"image-keyboard-response",52,75171,"0.0-3.13-2.13","2sw0rumdd9l9256",847,"128.csv","","null","resources/images/coin2.png","null","",NA,NA,NA,NA,""
"image-keyboard-response",53,75574,"0.0-3.14-0.14","2sw0rumdd9l9256",847,"128.csv","","401.5","resources/trios/L4T1A1.jpg","39","restless",0.9,0.2,0.7,0.721033118349772,"false"
"image-keyboard-response",54,75976,"0.0-3.14-1.14","2sw0rumdd9l9256",847,"128.csv","","null","resources/maskTrios/BBA1.jpg","null","",NA,NA,NA,NA,""
"image-keyboard-response",55,77180,"0.0-3.14-2.14","2sw0rumdd9l9256",847,"128.csv","","null","resources/images/fishbone.png","null","",NA,NA,NA,NA,""
"image-keyboard-response",56,77439,"0.0-3.15-0.15","2sw0rumdd9l9256",847,"128.csv","","257.5","resources/trios/L4T2A2.jpg","38","restless",0.8,0.2,0.7,0.689351867257753,"false"
"image-keyboard-response",57,77845,"0.0-3.15-1.15","2sw0rumdd9l9256",847,"128.csv","","null","resources/maskTrios/BT2B.jpg","null","",NA,NA,NA,NA,""
"image-keyboard-response",58,79051,"0.0-3.15-2.15","2sw0rumdd9l9256",847,"128.csv","","null","resources/images/fishbone.png","null","",NA,NA,NA,NA,""
"image-keyboard-response",59,79344,"0.0-3.16-0.16","2sw0rumdd9l9256",847,"128.csv","","291.69999998807907","resources/trios/L4T2A2.jpg","37","restless",0.8,0.2,0.7,0.142014152823486,"true"
"image-keyboard-response",60,79746,"0.0-3.16-1.16","2sw0rumdd9l9256",847,"128.csv","","null","resources/maskTrios/L4BB.jpg","null","",NA,NA,NA,NA,""
"image-keyboard-response",61,80952,"0.0-3.16-2.16","2sw0rumdd9l9256",847,"128.csv","","null","resources/images/coin2.png","null","",NA,NA,NA,NA,""
"image-keyboard-response",62,81270,"0.0-3.17-0.17","2sw0rumdd9l9256",847,"128.csv","","316.7999999821186","resources/trios/L1T1A2.jpg","39","restless",0.8,0.2,0.7,0.132228052195802,"true"
"image-keyboard-response",63,81677,"0.0-3.17-1.17","2sw0rumdd9l9256",847,"128.csv","","null","resources/maskTrios/BBA2.jpg","null","",NA,NA,NA,NA,""
"image-keyboard-response",64,82880,"0.0-3.17-2.17","2sw0rumdd9l9256",847,"128.csv","","null","resources/images/coin2.png","null","",NA,NA,NA,NA,""
"image-keyboard-response",65,83158,"0.0-3.18-0.18","2sw0rumdd9l9256",847,"128.csv","","276.90000000596046","resources/trios/L4T1A1.jpg","37","restless",0.8,0.2,0.7,0.762009268889858,"true"
"image-keyboard-response",66,83565,"0.0-3.18-1.18","2sw0rumdd9l9256",847,"128.csv","","null","resources/maskTrios/L4BB.jpg","null","",NA,NA,NA,NA,""
"image-keyboard-response",67,84768,"0.0-3.18-2.18","2sw0rumdd9l9256",847,"128.csv","","null","resources/images/coin2.png","null","",NA,NA,NA,NA,""
"image-keyboard-response",68,85680,"0.0-3.19-0.19","2sw0rumdd9l9256",847,"128.csv","","911","resources/trios/L1T1A1.jpg","38","restless",0.8,0.2,0.7,0.511841678564102,"false"
"image-keyboard-response",69,86085,"0.0-3.19-1.19","2sw0rumdd9l9256",847,"128.csv","","null","resources/maskTrios/BT1B.jpg","null","",NA,NA,NA,NA,""
"image-keyboard-response",70,87288,"0.0-3.19-2.19","2sw0rumdd9l9256",847,"128.csv","","null","resources/images/fishbone.png","null","",NA,NA,NA,NA,""
"image-keyboard-response",71,87349,"0.0-3.20-0.20","2sw0rumdd9l9256",847,"128.csv","","59.69999998807907","resources/trios/L4T2A1.jpg","39","restless",0.8,0.1,0.7,0.708128387333864,"false"
"image-keyboard-response",72,87756,"0.0-3.20-1.20","2sw0rumdd9l9256",847,"128.csv","","null","resources/maskTrios/BBA1.jpg","null","",NA,NA,NA,NA,""
"image-keyboard-response",73,88961,"0.0-3.20-2.20","2sw0rumdd9l9256",847,"128.csv","","null","resources/images/fishbone.png","null","",NA,NA,NA,NA,""
"image-keyboard-response",74,89225,"0.0-3.21-0.21","2sw0rumdd9l9256",847,"128.csv","","262.39999997615814","resources/trios/L1T1A1.jpg","37","restless",0.8,0.1,0.7,0.349660695172469,"true"
"image-keyboard-response",75,89630,"0.0-3.21-1.21","2sw0rumdd9l9256",847,"128.csv","","null","resources/maskTrios/L1BB.jpg","null","",NA,NA,NA,NA,""
"image-keyboard-response",76,90836,"0.0-3.21-2.21","2sw0rumdd9l9256",847,"128.csv","","null","resources/images/coin2.png","null","",NA,NA,NA,NA,""
"image-keyboard-response",77,91196,"0.0-3.22-0.22","2sw0rumdd9l9256",847,"128.csv","","358.80000001192093","resources/trios/L1T1A2.jpg","37","restless",0.7,0.1,0.7,0.0686763627204516,"true"
"image-keyboard-response",78,91603,"0.0-3.22-1.22","2sw0rumdd9l9256",847,"128.csv","","null","resources/maskTrios/L1BB.jpg","null","",NA,NA,NA,NA,""
"image-keyboard-response",79,92809,"0.0-3.22-2.22","2sw0rumdd9l9256",847,"128.csv","","null","resources/images/coin2.png","null","",NA,NA,NA,NA,""
"image-keyboard-response",80,93067,"0.0-3.23-0.23","2sw0rumdd9l9256",847,"128.csv","","256.7000000178814","resources/trios/L4T2A1.jpg","37","restless",0.7,0.1,0.7,0.703500872387751,"false"
"image-keyboard-response",81,93473,"0.0-3.23-1.23","2sw0rumdd9l9256",847,"128.csv","","null","resources/maskTrios/L4BB.jpg","null","",NA,NA,NA,NA,""
"image-keyboard-response",82,94679,"0.0-3.23-2.23","2sw0rumdd9l9256",847,"128.csv","","null","resources/images/fishbone.png","null","",NA,NA,NA,NA,""
"image-keyboard-response",83,94998,"0.0-3.24-0.24","2sw0rumdd9l9256",847,"128.csv","","317.30000001192093","resources/trios/L4T2A1.jpg","38","restless",0.7,0.1,0.7,0.493880326477525,"false"
"image-keyboard-response",84,95404,"0.0-3.24-1.24","2sw0rumdd9l9256",847,"128.csv","","null","resources/maskTrios/BT2B.jpg","null","",NA,NA,NA,NA,""
"image-keyboard-response",85,96609,"0.0-3.24-2.24","2sw0rumdd9l9256",847,"128.csv","","null","resources/images/fishbone.png","null","",NA,NA,NA,NA,""
"image-keyboard-response",86,96885,"0.0-3.25-0.25","2sw0rumdd9l9256",847,"128.csv","","273.89999997615814","resources/trios/L1T2A1.jpg","39","restless",0.7,0.1,0.7,0.611693831691173,"true"
"image-keyboard-response",87,97291,"0.0-3.25-1.25","2sw0rumdd9l9256",847,"128.csv","","null","resources/maskTrios/BBA1.jpg","null","",NA,NA,NA,NA,""
"image-keyboard-response",88,98497,"0.0-3.25-2.25","2sw0rumdd9l9256",847,"128.csv","","null","resources/images/coin2.png","null","",NA,NA,NA,NA,""
"image-keyboard-response",89,98757,"0.0-3.26-0.26","2sw0rumdd9l9256",847,"128.csv","","258.90000000596046","resources/trios/L4T2A1.jpg","37","restless",0.7,0.1,0.7,0.473579203646256,"true"
"image-keyboard-response",90,99164,"0.0-3.26-1.26","2sw0rumdd9l9256",847,"128.csv","","null","resources/maskTrios/L4BB.jpg","null","",NA,NA,NA,NA,""
"image-keyboard-response",91,100368,"0.0-3.26-2.26","2sw0rumdd9l9256",847,"128.csv","","null","resources/images/coin2.png","null","",NA,NA,NA,NA,""
"image-keyboard-response",92,100786,"0.0-3.27-0.27","2sw0rumdd9l9256",847,"128.csv","","416.40000000596046","resources/trios/L4T2A2.jpg","39","restless",0.7,0.2,0.6,0.271134334970659,"true"
"image-keyboard-response",93,101192,"0.0-3.27-1.27","2sw0rumdd9l9256",847,"128.csv","","null","resources/maskTrios/BBA2.jpg","null","",NA,NA,NA,NA,""
"image-keyboard-response",94,102397,"0.0-3.27-2.27","2sw0rumdd9l9256",847,"128.csv","","null","resources/images/coin2.png","null","",NA,NA,NA,NA,""
"image-keyboard-response",95,102996,"0.0-3.28-0.28","2sw0rumdd9l9256",847,"128.csv","","597.5","resources/trios/L4T2A1.jpg","37","restless",0.6,0.2,0.5,0.307168683858574,"true"
"image-keyboard-response",96,103402,"0.0-3.28-1.28","2sw0rumdd9l9256",847,"128.csv","","null","resources/maskTrios/L4BB.jpg","null","",NA,NA,NA,NA,""
"image-keyboard-response",97,104604,"0.0-3.28-2.28","2sw0rumdd9l9256",847,"128.csv","","null","resources/images/coin2.png","null","",NA,NA,NA,NA,""
"image-keyboard-response",98,104971,"0.0-3.29-0.29","2sw0rumdd9l9256",847,"128.csv","","365.40000000596046","resources/trios/L4T2A1.jpg","39","restless",0.5,0.1,0.5,0.706508082528061,"false"
"image-keyboard-response",99,105378,"0.0-3.29-1.29","2sw0rumdd9l9256",847,"128.csv","","null","resources/maskTrios/BBA1.jpg","null","",NA,NA,NA,NA,""
"image-keyboard-response",100,106584,"0.0-3.29-2.29","2sw0rumdd9l9256",847,"128.csv","","null","resources/images/fishbone.png","null","",NA,NA,NA,NA,""
"image-keyboard-response",101,106941,"0.0-3.30-0.30","2sw0rumdd9l9256",847,"128.csv","","356.09999999403954","resources/trios/L1T1A2.jpg","37","restless",0.5,0.2,0.5,0.278717244131136,"true"
"image-keyboard-response",102,107348,"0.0-3.30-1.30","2sw0rumdd9l9256",847,"128.csv","","null","resources/maskTrios/L1BB.jpg","null","",NA,NA,NA,NA,""
"image-keyboard-response",103,108552,"0.0-3.30-2.30","2sw0rumdd9l9256",847,"128.csv","","null","resources/images/coin2.png","null","",NA,NA,NA,NA,""
"image-keyboard-response",104,108907,"0.0-3.31-0.31","2sw0rumdd9l9256",847,"128.csv","","353.90000000596046","resources/trios/L1T2A1.jpg","38","restless",0.5,0.2,0.5,0.759205419057595,"false"
"image-keyboard-response",105,109308,"0.0-3.31-1.31","2sw0rumdd9l9256",847,"128.csv","","null","resources/maskTrios/BT2B.jpg","null","",NA,NA,NA,NA,""
"image-keyboard-response",106,110515,"0.0-3.31-2.31","2sw0rumdd9l9256",847,"128.csv","","null","resources/images/fishbone.png","null","",NA,NA,NA,NA,""
"image-keyboard-response",107,110855,"0.0-3.32-0.32","2sw0rumdd9l9256",847,"128.csv","","338.89999997615814","resources/trios/L4T1A2.jpg","39","restless",0.5,0.2,0.5,0.215757393023199,"true"
"image-keyboard-response",108,111257,"0.0-3.32-1.32","2sw0rumdd9l9256",847,"128.csv","","null","resources/maskTrios/BBA2.jpg","null","",NA,NA,NA,NA,""
"image-keyboard-response",109,112459,"0.0-3.32-2.32","2sw0rumdd9l9256",847,"128.csv","","null","resources/images/coin2.png","null","",NA,NA,NA,NA,""
"image-keyboard-response",110,112813,"0.0-3.33-0.33","2sw0rumdd9l9256",847,"128.csv","","352.5","resources/trios/L4T1A2.jpg","37","restless",0.5,0.2,0.5,0.905148872532029,"false"
"image-keyboard-response",111,113218,"0.0-3.33-1.33","2sw0rumdd9l9256",847,"128.csv","","null","resources/maskTrios/L4BB.jpg","null","",NA,NA,NA,NA,""
"image-keyboard-response",112,114422,"0.0-3.33-2.33","2sw0rumdd9l9256",847,"128.csv","","null","resources/images/fishbone.png","null","",NA,NA,NA,NA,""
"image-keyboard-response",113,114975,"0.0-3.34-0.34","2sw0rumdd9l9256",847,"128.csv","","551.2999999821186","resources/trios/L4T2A2.jpg","38","restless",0.5,0.2,0.5,0.461983091928158,"false"
"image-keyboard-response",114,115380,"0.0-3.34-1.34","2sw0rumdd9l9256",847,"128.csv","","null","resources/maskTrios/BT2B.jpg","null","",NA,NA,NA,NA,""
"image-keyboard-response",115,116586,"0.0-3.34-2.34","2sw0rumdd9l9256",847,"128.csv","","null","resources/images/fishbone.png","null","",NA,NA,NA,NA,""
"image-keyboard-response",116,116918,"0.0-3.35-0.35","2sw0rumdd9l9256",847,"128.csv","","330.5","resources/trios/L4T1A2.jpg","39","restless",0.5,0.2,0.5,0.253193606042669,"true"
"image-keyboard-response",117,117323,"0.0-3.35-1.35","2sw0rumdd9l9256",847,"128.csv","","null","resources/maskTrios/BBA2.jpg","null","",NA,NA,NA,NA,""
"image-keyboard-response",118,118526,"0.0-3.35-2.35","2sw0rumdd9l9256",847,"128.csv","","null","resources/images/coin2.png","null","",NA,NA,NA,NA,""
"image-keyboard-response",119,118865,"0.0-3.36-0.36","2sw0rumdd9l9256",847,"128.csv","","337.30000001192093","resources/trios/L4T1A1.jpg","37","restless",0.5,0.2,0.5,0.735578426687927,"false"
"image-keyboard-response",120,119271,"0.0-3.36-1.36","2sw0rumdd9l9256",847,"128.csv","","null","resources/maskTrios/L4BB.jpg","null","",NA,NA,NA,NA,""
"image-keyboard-response",121,120472,"0.0-3.36-2.36","2sw0rumdd9l9256",847,"128.csv","","null","resources/images/fishbone.png","null","",NA,NA,NA,NA,""
"image-keyboard-response",122,120836,"0.0-3.37-0.37","2sw0rumdd9l9256",847,"128.csv","","362.59999999403954","resources/trios/L1T2A1.jpg","39","restless",0.4,0.2,0.5,0.407469863985028,"true"
"image-keyboard-response",123,121243,"0.0-3.37-1.37","2sw0rumdd9l9256",847,"128.csv","","null","resources/maskTrios/BBA1.jpg","null","",NA,NA,NA,NA,""
"image-keyboard-response",124,122445,"0.0-3.37-2.37","2sw0rumdd9l9256",847,"128.csv","","null","resources/images/coin2.png","null","",NA,NA,NA,NA,""
"image-keyboard-response",125,122717,"0.0-3.38-0.38","2sw0rumdd9l9256",847,"128.csv","","270.19999998807907","resources/trios/L4T2A1.jpg","38","restless",0.4,0.2,0.5,0.790296330614685,"false"
"image-keyboard-response",126,123123,"0.0-3.38-1.38","2sw0rumdd9l9256",847,"128.csv","","null","resources/maskTrios/BT2B.jpg","null","",NA,NA,NA,NA,""
"image-keyboard-response",127,124330,"0.0-3.38-2.38","2sw0rumdd9l9256",847,"128.csv","","null","resources/images/fishbone.png","null","",NA,NA,NA,NA,""
"image-keyboard-response",128,124406,"0.0-3.39-0.39","2sw0rumdd9l9256",847,"128.csv","","75.09999999403954","resources/trios/L4T2A2.jpg","37","restless",0.4,0.2,0.5,0.927723960105802,"false"
"image-keyboard-response",129,124812,"0.0-3.39-1.39","2sw0rumdd9l9256",847,"128.csv","","null","resources/maskTrios/L4BB.jpg","null","",NA,NA,NA,NA,""
"image-keyboard-response",130,126018,"0.0-3.39-2.39","2sw0rumdd9l9256",847,"128.csv","","null","resources/images/fishbone.png","null","",NA,NA,NA,NA,""
"image-keyboard-response",131,126218,"0.0-3.40-0.40","2sw0rumdd9l9256",847,"128.csv","","198.2999999821186","resources/trios/L4T1A1.jpg","37","restless",0.4,0.2,0.5,0.914284227053509,"false"
"image-keyboard-response",132,126625,"0.0-3.40-1.40","2sw0rumdd9l9256",847,"128.csv","","null","resources/maskTrios/L4BB.jpg","null","",NA,NA,NA,NA,""
"image-keyboard-response",133,127826,"0.0-3.40-2.40","2sw0rumdd9l9256",847,"128.csv","","null","resources/images/fishbone.png","null","",NA,NA,NA,NA,""
"image-keyboard-response",134,128092,"0.0-3.41-0.41","2sw0rumdd9l9256",847,"128.csv","","263.90000000596046","resources/trios/L1T2A1.jpg","39","restless",0.4,0.2,0.5,0.239499798983231,"true"
"image-keyboard-response",135,128495,"0.0-3.41-1.41","2sw0rumdd9l9256",847,"128.csv","","null","resources/maskTrios/BBA1.jpg","null","",NA,NA,NA,NA,""
"image-keyboard-response",136,129701,"0.0-3.41-2.41","2sw0rumdd9l9256",847,"128.csv","","null","resources/images/coin2.png","null","",NA,NA,NA,NA,""
"image-keyboard-response",137,129983,"0.0-3.42-0.42","2sw0rumdd9l9256",847,"128.csv","","281.10000002384186","resources/trios/L1T1A2.jpg","38","restless",0.4,0.2,0.5,0.330609345323184,"false"
"image-keyboard-response",138,130390,"0.0-3.42-1.42","2sw0rumdd9l9256",847,"128.csv","","null","resources/maskTrios/BT1B.jpg","null","",NA,NA,NA,NA,""
"image-keyboard-response",139,131591,"0.0-3.42-2.42","2sw0rumdd9l9256",847,"128.csv","","null","resources/images/fishbone.png","null","",NA,NA,NA,NA,""
"image-keyboard-response",140,131841,"0.0-3.43-0.43","2sw0rumdd9l9256",847,"128.csv","","249.2999999821186","resources/trios/L1T1A1.jpg","37","restless",0.5,0.1,0.5,0.424358881218306,"true"
"image-keyboard-response",141,132248,"0.0-3.43-1.43","2sw0rumdd9l9256",847,"128.csv","","null","resources/maskTrios/L1BB.jpg","null","",NA,NA,NA,NA,""
"image-keyboard-response",142,133451,"0.0-3.43-2.43","2sw0rumdd9l9256",847,"128.csv","","null","resources/images/coin2.png","null","",NA,NA,NA,NA,""
"image-keyboard-response",143,133707,"0.0-3.44-0.44","2sw0rumdd9l9256",847,"128.csv","","255.09999999403954","resources/trios/L1T2A1.jpg","39","restless",0.5,0.2,0.5,0.338451625564518,"true"
"image-keyboard-response",144,134114,"0.0-3.44-1.44","2sw0rumdd9l9256",847,"128.csv","","null","resources/maskTrios/BBA1.jpg","null","",NA,NA,NA,NA,""
"image-keyboard-response",145,135320,"0.0-3.44-2.44","2sw0rumdd9l9256",847,"128.csv","","null","resources/images/coin2.png","null","",NA,NA,NA,NA,""
"image-keyboard-response",146,135539,"0.0-3.45-0.45","2sw0rumdd9l9256",847,"128.csv","","216.89999997615814","resources/trios/L1T1A1.jpg","37","restless",0.5,0.2,0.5,0.127779128426184,"true"
"image-keyboard-response",147,135945,"0.0-3.45-1.45","2sw0rumdd9l9256",847,"128.csv","","null","resources/maskTrios/L1BB.jpg","null","",NA,NA,NA,NA,""
"image-keyboard-response",148,137147,"0.0-3.45-2.45","2sw0rumdd9l9256",847,"128.csv","","null","resources/images/coin2.png","null","",NA,NA,NA,NA,""
"image-keyboard-response",149,137396,"0.0-3.46-0.46","2sw0rumdd9l9256",847,"128.csv","","247.69999998807907","resources/trios/L4T2A2.jpg","39","restless",0.5,0.2,0.5,0.729400397206504,"false"
"image-keyboard-response",150,137803,"0.0-3.46-1.46","2sw0rumdd9l9256",847,"128.csv","","null","resources/maskTrios/BBA2.jpg","null","",NA,NA,NA,NA,""
"image-keyboard-response",151,139009,"0.0-3.46-2.46","2sw0rumdd9l9256",847,"128.csv","","null","resources/images/fishbone.png","null","",NA,NA,NA,NA,""
"image-keyboard-response",152,139313,"0.0-3.47-0.47","2sw0rumdd9l9256",847,"128.csv","","302.40000000596046","resources/trios/L1T2A2.jpg","37","restless",0.5,0.2,0.5,0.702434901418897,"false"
"image-keyboard-response",153,139719,"0.0-3.47-1.47","2sw0rumdd9l9256",847,"128.csv","","null","resources/maskTrios/L1BB.jpg","null","",NA,NA,NA,NA,""
"image-keyboard-response",154,140924,"0.0-3.47-2.47","2sw0rumdd9l9256",847,"128.csv","","null","resources/images/fishbone.png","null","",NA,NA,NA,NA,""
"image-keyboard-response",155,141450,"0.0-3.48-0.48","2sw0rumdd9l9256",847,"128.csv","","524.6999999880791","resources/trios/L1T1A1.jpg","38","restless",0.5,0.2,0.5,0.554772530608908,"false"
"image-keyboard-response",156,141856,"0.0-3.48-1.48","2sw0rumdd9l9256",847,"128.csv","","null","resources/maskTrios/BT1B.jpg","null","",NA,NA,NA,NA,""
"image-keyboard-response",157,143061,"0.0-3.48-2.48","2sw0rumdd9l9256",847,"128.csv","","null","resources/images/fishbone.png","null","",NA,NA,NA,NA,""
"image-keyboard-response",158,143356,"0.0-3.49-0.49","2sw0rumdd9l9256",847,"128.csv","","293.7999999821186","resources/trios/L1T2A2.jpg","39","restless",0.5,0.2,0.5,0.852415716558217,"false"
"image-keyboard-response",159,143758,"0.0-3.49-1.49","2sw0rumdd9l9256",847,"128.csv","","null","resources/maskTrios/BBA2.jpg","null","",NA,NA,NA,NA,""
"image-keyboard-response",160,144964,"0.0-3.49-2.49","2sw0rumdd9l9256",847,"128.csv","","null","resources/images/fishbone.png","null","",NA,NA,NA,NA,""
"image-keyboard-response",161,145225,"0.0-3.50-0.50","2sw0rumdd9l9256",847,"128.csv","","259.90000000596046","resources/trios/L1T1A1.jpg","38","restless",0.5,0.2,0.5,0.312434784991838,"false"
"image-keyboard-response",162,145632,"0.0-3.50-1.50","2sw0rumdd9l9256",847,"128.csv","","null","resources/maskTrios/BT1B.jpg","null","",NA,NA,NA,NA,""
"image-keyboard-response",163,146834,"0.0-3.50-2.50","2sw0rumdd9l9256",847,"128.csv","","null","resources/images/fishbone.png","null","",NA,NA,NA,NA,""
"image-keyboard-response",164,147094,"0.0-3.51-0.51","2sw0rumdd9l9256",847,"128.csv","","259","resources/trios/L4T2A2.jpg","37","restless",0.5,0.2,0.5,0.907829662920653,"false"
"image-keyboard-response",165,147501,"0.0-3.51-1.51","2sw0rumdd9l9256",847,"128.csv","","null","resources/maskTrios/L4BB.jpg","null","",NA,NA,NA,NA,""
"image-keyboard-response",166,148706,"0.0-3.51-2.51","2sw0rumdd9l9256",847,"128.csv","","null","resources/images/fishbone.png","null","",NA,NA,NA,NA,""
"image-keyboard-response",167,149060,"0.0-3.52-0.52","2sw0rumdd9l9256",847,"128.csv","","352.90000000596046","resources/trios/L1T2A2.jpg","39","restless",0.5,0.2,0.5,0.154711350855843,"true"
"image-keyboard-response",168,149467,"0.0-3.52-1.52","2sw0rumdd9l9256",847,"128.csv","","null","resources/maskTrios/BBA2.jpg","null","",NA,NA,NA,NA,""
"image-keyboard-response",169,150673,"0.0-3.52-2.52","2sw0rumdd9l9256",847,"128.csv","","null","resources/images/coin2.png","null","",NA,NA,NA,NA,""
"image-keyboard-response",170,150969,"0.0-3.53-0.53","2sw0rumdd9l9256",847,"128.csv","","294.59999999403954","resources/trios/L1T1A1.jpg","37","restless",0.5,0.2,0.5,0.777404728700863,"false"
"image-keyboard-response",171,151376,"0.0-3.53-1.53","2sw0rumdd9l9256",847,"128.csv","","null","resources/maskTrios/L1BB.jpg","null","",NA,NA,NA,NA,""
"image-keyboard-response",172,152582,"0.0-3.53-2.53","2sw0rumdd9l9256",847,"128.csv","","null","resources/images/fishbone.png","null","",NA,NA,NA,NA,""
"image-keyboard-response",173,152904,"0.0-3.54-0.54","2sw0rumdd9l9256",847,"128.csv","","320.59999999403954","resources/trios/L1T2A1.jpg","38","restless",0.5,0.2,0.5,0.57141238419081,"false"
"image-keyboard-response",174,153311,"0.0-3.54-1.54","2sw0rumdd9l9256",847,"128.csv","","null","resources/maskTrios/BT2B.jpg","null","",NA,NA,NA,NA,""
"image-keyboard-response",175,154517,"0.0-3.54-2.54","2sw0rumdd9l9256",847,"128.csv","","null","resources/images/fishbone.png","null","",NA,NA,NA,NA,""
"image-keyboard-response",176,154636,"0.0-3.55-0.55","2sw0rumdd9l9256",847,"128.csv","","117.7000000178814","resources/trios/L4T2A2.jpg","37","restless",0.4,0.2,0.5,0.665201156088133,"false"
"image-keyboard-response",177,155043,"0.0-3.55-1.55","2sw0rumdd9l9256",847,"128.csv","","null","resources/maskTrios/L4BB.jpg","null","",NA,NA,NA,NA,""
"image-keyboard-response",178,156245,"0.0-3.55-2.55","2sw0rumdd9l9256",847,"128.csv","","null","resources/images/fishbone.png","null","",NA,NA,NA,NA,""
"image-keyboard-response",179,156480,"0.0-3.56-0.56","2sw0rumdd9l9256",847,"128.csv","","233.90000000596046","resources/trios/L4T1A1.jpg","39","restless",0.4,0.2,0.5,0.712738029773135,"false"
"image-keyboard-response",180,156887,"0.0-3.56-1.56","2sw0rumdd9l9256",847,"128.csv","","null","resources/maskTrios/BBA1.jpg","null","",NA,NA,NA,NA,""
"image-keyboard-response",181,158093,"0.0-3.56-2.56","2sw0rumdd9l9256",847,"128.csv","","null","resources/images/fishbone.png","null","",NA,NA,NA,NA,""
"image-keyboard-response",182,158190,"0.0-3.57-0.57","2sw0rumdd9l9256",847,"128.csv","","95.60000002384186","resources/trios/L4T2A1.jpg","37","restless",0.5,0.2,0.5,0.714694345188646,"false"
"image-keyboard-response",183,158596,"0.0-3.57-1.57","2sw0rumdd9l9256",847,"128.csv","","null","resources/maskTrios/L4BB.jpg","null","",NA,NA,NA,NA,""
"image-keyboard-response",184,159803,"0.0-3.57-2.57","2sw0rumdd9l9256",847,"128.csv","","null","resources/images/fishbone.png","null","",NA,NA,NA,NA,""
"image-keyboard-response",185,160958,"0.0-3.58-0.58","2sw0rumdd9l9256",847,"128.csv","","1154.0999999940395","resources/trios/L1T1A2.jpg","37","restless",0.6,0.2,0.5,0.376431414922897,"true"
"image-keyboard-response",186,161361,"0.0-3.58-1.58","2sw0rumdd9l9256",847,"128.csv","","null","resources/maskTrios/L1BB.jpg","null","",NA,NA,NA,NA,""
"image-keyboard-response",187,162563,"0.0-3.58-2.58","2sw0rumdd9l9256",847,"128.csv","","null","resources/images/coin2.png","null","",NA,NA,NA,NA,""
"image-keyboard-response",188,162871,"0.0-3.59-0.59","2sw0rumdd9l9256",847,"128.csv","","306.60000002384186","resources/trios/L1T2A1.jpg","38","restless",0.6,0.2,0.4,0.148986154481205,"true"
"image-keyboard-response",189,163278,"0.0-3.59-1.59","2sw0rumdd9l9256",847,"128.csv","","null","resources/maskTrios/BT2B.jpg","null","",NA,NA,NA,NA,""
"image-keyboard-response",190,164484,"0.0-3.59-2.59","2sw0rumdd9l9256",847,"128.csv","","null","resources/images/coin2.png","null","",NA,NA,NA,NA,""
"image-keyboard-response",191,164741,"0.0-3.60-0.60","2sw0rumdd9l9256",847,"128.csv","","255.59999999403954","resources/trios/L4T2A2.jpg","39","restless",0.7,0.2,0.4,0.614846852938417,"false"
"image-keyboard-response",192,165147,"0.0-3.60-1.60","2sw0rumdd9l9256",847,"128.csv","","null","resources/maskTrios/BBA2.jpg","null","",NA,NA,NA,NA,""
"image-keyboard-response",193,166348,"0.0-3.60-2.60","2sw0rumdd9l9256",847,"128.csv","","null","resources/images/fishbone.png","null","",NA,NA,NA,NA,""
"image-keyboard-response",194,166611,"0.0-3.61-0.61","2sw0rumdd9l9256",847,"128.csv","","261.7999999821186","resources/trios/L4T2A1.jpg","37","restless",0.6,0.2,0.4,0.105182672675375,"true"
"image-keyboard-response",195,167013,"0.0-3.61-1.61","2sw0rumdd9l9256",847,"128.csv","","null","resources/maskTrios/L4BB.jpg","null","",NA,NA,NA,NA,""
"image-keyboard-response",196,168218,"0.0-3.61-2.61","2sw0rumdd9l9256",847,"128.csv","","null","resources/images/coin2.png","null","",NA,NA,NA,NA,""
"image-keyboard-response",197,168459,"0.0-3.62-0.62","2sw0rumdd9l9256",847,"128.csv","","239.2000000178814","resources/trios/L4T1A2.jpg","38","restless",0.6,0.2,0.4,0.32652206707395,"false"
"image-keyboard-response",198,168864,"0.0-3.62-1.62","2sw0rumdd9l9256",847,"128.csv","","null","resources/maskTrios/BT1B.jpg","null","",NA,NA,NA,NA,""
"image-keyboard-response",199,170066,"0.0-3.62-2.62","2sw0rumdd9l9256",847,"128.csv","","null","resources/images/fishbone.png","null","",NA,NA,NA,NA,""
"image-keyboard-response",200,170357,"0.0-3.63-0.63","2sw0rumdd9l9256",847,"128.csv","","289.69999998807907","resources/trios/L1T2A1.jpg","39","restless",0.6,0.2,0.4,0.505347479058662,"false"
"image-keyboard-response",201,170759,"0.0-3.63-1.63","2sw0rumdd9l9256",847,"128.csv","","null","resources/maskTrios/BBA1.jpg","null","",NA,NA,NA,NA,""
"image-keyboard-response",202,171965,"0.0-3.63-2.63","2sw0rumdd9l9256",847,"128.csv","","null","resources/images/fishbone.png","null","",NA,NA,NA,NA,""
"image-keyboard-response",203,172229,"0.0-3.64-0.64","2sw0rumdd9l9256",847,"128.csv","","262.5","resources/trios/L1T1A2.jpg","37","restless",0.6,0.2,0.4,0.721432493446627,"false"
"image-keyboard-response",204,172631,"0.0-3.64-1.64","2sw0rumdd9l9256",847,"128.csv","","null","resources/maskTrios/L1BB.jpg","null","",NA,NA,NA,NA,""
"image-keyboard-response",205,173832,"0.0-3.64-2.64","2sw0rumdd9l9256",847,"128.csv","","null","resources/images/fishbone.png","null","",NA,NA,NA,NA,""
"image-keyboard-response",206,173837,"0.0-3.65-0.65","2sw0rumdd9l9256",847,"128.csv","","3.2999999821186066","resources/trios/L4T2A1.jpg","38","restless",0.5,0.2,0.4,0.871811005842545,"false"
"image-keyboard-response",207,174240,"0.0-3.65-1.65","2sw0rumdd9l9256",847,"128.csv","","null","resources/maskTrios/BT2B.jpg","null","",NA,NA,NA,NA,""
"image-keyboard-response",208,175446,"0.0-3.65-2.65","2sw0rumdd9l9256",847,"128.csv","","null","resources/images/fishbone.png","null","",NA,NA,NA,NA,""
"image-keyboard-response",209,175706,"0.0-3.66-0.66","2sw0rumdd9l9256",847,"128.csv","","258.2000000178814","resources/trios/L4T1A2.jpg","39","restless",0.5,0.2,0.5,0.326391375786704,"true"
"image-keyboard-response",210,176109,"0.0-3.66-1.66","2sw0rumdd9l9256",847,"128.csv","","null","resources/maskTrios/BBA2.jpg","null","",NA,NA,NA,NA,""
"image-keyboard-response",211,177313,"0.0-3.66-2.66","2sw0rumdd9l9256",847,"128.csv","","null","resources/images/coin2.png","null","",NA,NA,NA,NA,""
"image-keyboard-response",212,177614,"0.0-3.67-0.67","2sw0rumdd9l9256",847,"128.csv","","300.19999998807907","resources/trios/L4T2A1.jpg","37","restless",0.5,0.2,0.5,0.487050482196244,"true"
"image-keyboard-response",213,178021,"0.0-3.67-1.67","2sw0rumdd9l9256",847,"128.csv","","null","resources/maskTrios/L4BB.jpg","null","",NA,NA,NA,NA,""
"image-keyboard-response",214,179227,"0.0-3.67-2.67","2sw0rumdd9l9256",847,"128.csv","","null","resources/images/coin2.png","null","",NA,NA,NA,NA,""
"image-keyboard-response",215,179499,"0.0-3.68-0.68","2sw0rumdd9l9256",847,"128.csv","","269.7999999821186","resources/trios/L1T1A1.jpg","39","restless",0.5,0.2,0.6,0.288146169175728,"true"
"image-keyboard-response",216,179904,"0.0-3.68-1.68","2sw0rumdd9l9256",847,"128.csv","","null","resources/maskTrios/BBA1.jpg","null","",NA,NA,NA,NA,""
"image-keyboard-response",217,181109,"0.0-3.68-2.68","2sw0rumdd9l9256",847,"128.csv","","null","resources/images/coin2.png","null","",NA,NA,NA,NA,""
"image-keyboard-response",218,181412,"0.0-3.69-0.69","2sw0rumdd9l9256",847,"128.csv","","301.59999999403954","resources/trios/L4T2A1.jpg","38","restless",0.5,0.2,0.6,0.927452208887014,"false"
"image-keyboard-response",219,181819,"0.0-3.69-1.69","2sw0rumdd9l9256",847,"128.csv","","null","resources/maskTrios/BT2B.jpg","null","",NA,NA,NA,NA,""
"image-keyboard-response",220,183025,"0.0-3.69-2.69","2sw0rumdd9l9256",847,"128.csv","","null","resources/images/fishbone.png","null","",NA,NA,NA,NA,""
"image-keyboard-response",221,183288,"0.0-3.70-0.70","2sw0rumdd9l9256",847,"128.csv","","261.2000000178814","resources/trios/L1T2A1.jpg","37","restless",0.5,0.2,0.6,0.121880982140844,"true"
"image-keyboard-response",222,183695,"0.0-3.70-1.70","2sw0rumdd9l9256",847,"128.csv","","null","resources/maskTrios/L1BB.jpg","null","",NA,NA,NA,NA,""
"image-keyboard-response",223,184901,"0.0-3.70-2.70","2sw0rumdd9l9256",847,"128.csv","","null","resources/images/coin2.png","null","",NA,NA,NA,NA,""
"image-keyboard-response",224,185168,"0.0-3.71-0.71","2sw0rumdd9l9256",847,"128.csv","","265.90000000596046","resources/trios/L4T1A1.jpg","39","restless",0.5,0.2,0.6,0.136013248643205,"true"
"image-keyboard-response",225,185572,"0.0-3.71-1.71","2sw0rumdd9l9256",847,"128.csv","","null","resources/maskTrios/BBA1.jpg","null","",NA,NA,NA,NA,""
"image-keyboard-response",226,186779,"0.0-3.71-2.71","2sw0rumdd9l9256",847,"128.csv","","null","resources/images/coin2.png","null","",NA,NA,NA,NA,""
"image-keyboard-response",227,187024,"0.0-3.72-0.72","2sw0rumdd9l9256",847,"128.csv","","244.40000000596046","resources/trios/L4T2A2.jpg","37","restless",0.5,0.2,0.6,0.297047960715289,"true"
"image-keyboard-response",228,187431,"0.0-3.72-1.72","2sw0rumdd9l9256",847,"128.csv","","null","resources/maskTrios/L4BB.jpg","null","",NA,NA,NA,NA,""
"image-keyboard-response",229,188633,"0.0-3.72-2.72","2sw0rumdd9l9256",847,"128.csv","","null","resources/images/coin2.png","null","",NA,NA,NA,NA,""
"image-keyboard-response",230,188887,"0.0-3.73-0.73","2sw0rumdd9l9256",847,"128.csv","","253.09999999403954","resources/trios/L4T2A2.jpg","39","restless",0.5,0.3,0.6,0.105468846525617,"true"
"image-keyboard-response",231,189294,"0.0-3.73-1.73","2sw0rumdd9l9256",847,"128.csv","","null","resources/maskTrios/BBA2.jpg","null","",NA,NA,NA,NA,""
"image-keyboard-response",232,190500,"0.0-3.73-2.73","2sw0rumdd9l9256",847,"128.csv","","null","resources/images/coin2.png","null","",NA,NA,NA,NA,""
"image-keyboard-response",233,190783,"0.0-3.74-0.74","2sw0rumdd9l9256",847,"128.csv","","281.2000000178814","resources/trios/L1T1A1.jpg","37","restless",0.5,0.3,0.6,0.0247165493423531,"true"
"image-keyboard-response",234,191190,"0.0-3.74-1.74","2sw0rumdd9l9256",847,"128.csv","","null","resources/maskTrios/L1BB.jpg","null","",NA,NA,NA,NA,""
"image-keyboard-response",235,192392,"0.0-3.74-2.74","2sw0rumdd9l9256",847,"128.csv","","null","resources/images/coin2.png","null","",NA,NA,NA,NA,""
"image-keyboard-response",236,192677,"0.0-3.75-0.75","2sw0rumdd9l9256",847,"128.csv","","284.2999999821186","resources/trios/L1T2A2.jpg","39","restless",0.5,0.3,0.6,0.524385396662228,"true"
"image-keyboard-response",237,193080,"0.0-3.75-1.75","2sw0rumdd9l9256",847,"128.csv","","null","resources/maskTrios/BBA2.jpg","null","",NA,NA,NA,NA,""
"image-keyboard-response",238,194286,"0.0-3.75-2.75","2sw0rumdd9l9256",847,"128.csv","","null","resources/images/coin2.png","null","",NA,NA,NA,NA,""
"image-keyboard-response",239,194539,"0.0-3.76-0.76","2sw0rumdd9l9256",847,"128.csv","","251.09999999403954","resources/trios/L4T2A1.jpg","37","restless",0.5,0.3,0.6,0.658799240885988,"false"
"image-keyboard-response",240,194946,"0.0-3.76-1.76","2sw0rumdd9l9256",847,"128.csv","","null","resources/maskTrios/L4BB.jpg","null","",NA,NA,NA,NA,""
"image-keyboard-response",241,196152,"0.0-3.76-2.76","2sw0rumdd9l9256",847,"128.csv","","null","resources/images/fishbone.png","null","",NA,NA,NA,NA,""
"image-keyboard-response",242,196405,"0.0-3.77-0.77","2sw0rumdd9l9256",847,"128.csv","","251.40000000596046","resources/trios/L1T2A2.jpg","39","restless",0.5,0.3,0.6,0.897591269545597,"false"
"image-keyboard-response",243,196807,"0.0-3.77-1.77","2sw0rumdd9l9256",847,"128.csv","","null","resources/maskTrios/BBA2.jpg","null","",NA,NA,NA,NA,""
"image-keyboard-response",244,198013,"0.0-3.77-2.77","2sw0rumdd9l9256",847,"128.csv","","null","resources/images/fishbone.png","null","",NA,NA,NA,NA,""
"image-keyboard-response",245,198284,"0.0-3.78-0.78","2sw0rumdd9l9256",847,"128.csv","","270.2999999821186","resources/trios/L4T1A2.jpg","38","restless",0.5,0.3,0.6,0.246110093129098,"true"
"image-keyboard-response",246,198686,"0.0-3.78-1.78","2sw0rumdd9l9256",847,"128.csv","","null","resources/maskTrios/BT1B.jpg","null","",NA,NA,NA,NA,""
"image-keyboard-response",247,199893,"0.0-3.78-2.78","2sw0rumdd9l9256",847,"128.csv","","null","resources/images/coin2.png","null","",NA,NA,NA,NA,""
"image-keyboard-response",248,200210,"0.0-3.79-0.79","2sw0rumdd9l9256",847,"128.csv","","315.80000001192093","resources/trios/L1T2A1.jpg","37","restless",0.5,0.3,0.6,0.462876732077767,"true"
"image-keyboard-response",249,200616,"0.0-3.79-1.79","2sw0rumdd9l9256",847,"128.csv","","null","resources/maskTrios/L1BB.jpg","null","",NA,NA,NA,NA,""
"image-keyboard-response",250,201822,"0.0-3.79-2.79","2sw0rumdd9l9256",847,"128.csv","","null","resources/images/coin2.png","null","",NA,NA,NA,NA,""
"image-keyboard-response",251,202055,"0.0-3.80-0.80","2sw0rumdd9l9256",847,"128.csv","","232.19999998807907","resources/trios/L4T2A1.jpg","39","restless",0.5,0.3,0.6,0.239781254954028,"true"
"image-keyboard-response",252,202458,"0.0-3.80-1.80","2sw0rumdd9l9256",847,"128.csv","","null","resources/maskTrios/BBA1.jpg","null","",NA,NA,NA,NA,""
"image-keyboard-response",253,203664,"0.0-3.80-2.80","2sw0rumdd9l9256",847,"128.csv","","null","resources/images/coin2.png","null","",NA,NA,NA,NA,""
"image-keyboard-response",254,203945,"0.0-3.81-0.81","2sw0rumdd9l9256",847,"128.csv","","279","resources/trios/L4T2A1.jpg","38","restless",0.5,0.3,0.6,0.557706605980987,"false"
"image-keyboard-response",255,204351,"0.0-3.81-1.81","2sw0rumdd9l9256",847,"128.csv","","null","resources/maskTrios/BT2B.jpg","null","",NA,NA,NA,NA,""
"image-keyboard-response",256,205557,"0.0-3.81-2.81","2sw0rumdd9l9256",847,"128.csv","","null","resources/images/fishbone.png","null","",NA,NA,NA,NA,""
"image-keyboard-response",257,205828,"0.0-3.82-0.82","2sw0rumdd9l9256",847,"128.csv","","269.80000001192093","resources/trios/L4T1A1.jpg","37","restless",0.5,0.4,0.6,0.918966364028071,"false"
"image-keyboard-response",258,206235,"0.0-3.82-1.82","2sw0rumdd9l9256",847,"128.csv","","null","resources/maskTrios/L4BB.jpg","null","",NA,NA,NA,NA,""
"image-keyboard-response",259,207440,"0.0-3.82-2.82","2sw0rumdd9l9256",847,"128.csv","","null","resources/images/fishbone.png","null","",NA,NA,NA,NA,""
"image-keyboard-response",260,207528,"0.0-3.83-0.83","2sw0rumdd9l9256",847,"128.csv","","86.19999998807907","resources/trios/L1T2A2.jpg","39","restless",0.5,0.4,0.6,0.417687727838126,"true"
"image-keyboard-response",261,207934,"0.0-3.83-1.83","2sw0rumdd9l9256",847,"128.csv","","null","resources/maskTrios/BBA2.jpg","null","",NA,NA,NA,NA,""
"image-keyboard-response",262,209136,"0.0-3.83-2.83","2sw0rumdd9l9256",847,"128.csv","","null","resources/images/coin2.png","null","",NA,NA,NA,NA,""
"image-keyboard-response",263,209372,"0.0-3.84-0.84","2sw0rumdd9l9256",847,"128.csv","","235.10000002384186","resources/trios/L4T1A1.jpg","37","restless",0.4,0.4,0.6,0.117753762328674,"true"
"image-keyboard-response",264,209779,"0.0-3.84-1.84","2sw0rumdd9l9256",847,"128.csv","","null","resources/maskTrios/L4BB.jpg","null","",NA,NA,NA,NA,""
"image-keyboard-response",265,210985,"0.0-3.84-2.84","2sw0rumdd9l9256",847,"128.csv","","null","resources/images/coin2.png","null","",NA,NA,NA,NA,""
"image-keyboard-response",266,211091,"0.0-3.85-0.85","2sw0rumdd9l9256",847,"128.csv","","104.80000001192093","resources/trios/L1T1A1.jpg","39","restless",0.4,0.4,0.6,0.555521832352938,"true"
"image-keyboard-response",267,211498,"0.0-3.85-1.85","2sw0rumdd9l9256",847,"128.csv","","null","resources/maskTrios/BBA1.jpg","null","",NA,NA,NA,NA,""
"image-keyboard-response",268,212704,"0.0-3.85-2.85","2sw0rumdd9l9256",847,"128.csv","","null","resources/images/coin2.png","null","",NA,NA,NA,NA,""
"image-keyboard-response",269,212953,"0.0-3.86-0.86","2sw0rumdd9l9256",847,"128.csv","","248","resources/trios/L4T2A1.jpg","37","restless",0.4,0.4,0.6,0.261306213100419,"true"
"image-keyboard-response",270,213360,"0.0-3.86-1.86","2sw0rumdd9l9256",847,"128.csv","","null","resources/maskTrios/L4BB.jpg","null","",NA,NA,NA,NA,""
"image-keyboard-response",271,214566,"0.0-3.86-2.86","2sw0rumdd9l9256",847,"128.csv","","null","resources/images/coin2.png","null","",NA,NA,NA,NA,""
"image-keyboard-response",272,214796,"0.0-3.87-0.87","2sw0rumdd9l9256",847,"128.csv","","228.40000000596046","resources/trios/L1T2A1.jpg","39","restless",0.4,0.4,0.6,0.600035299782939,"false"
"image-keyboard-response",273,215197,"0.0-3.87-1.87","2sw0rumdd9l9256",847,"128.csv","","null","resources/maskTrios/BBA1.jpg","null","",NA,NA,NA,NA,""
"image-keyboard-response",274,216404,"0.0-3.87-2.87","2sw0rumdd9l9256",847,"128.csv","","null","resources/images/fishbone.png","null","",NA,NA,NA,NA,""
"image-keyboard-response",275,216806,"0.0-3.88-0.88","2sw0rumdd9l9256",847,"128.csv","","400.69999998807907","resources/trios/L1T2A1.jpg","37","restless",0.4,0.4,0.6,0.191885657854009,"true"
"image-keyboard-response",276,217213,"0.0-3.88-1.88","2sw0rumdd9l9256",847,"128.csv","","null","resources/maskTrios/L1BB.jpg","null","",NA,NA,NA,NA,""
"image-keyboard-response",277,218414,"0.0-3.88-2.88","2sw0rumdd9l9256",847,"128.csv","","null","resources/images/coin2.png","null","",NA,NA,NA,NA,""
"image-keyboard-response",278,218752,"0.0-3.89-0.89","2sw0rumdd9l9256",847,"128.csv","","336.19999998807907","resources/trios/L4T2A1.jpg","39","restless",0.4,0.4,0.6,0.117261956552648,"true"
"image-keyboard-response",279,219158,"0.0-3.89-1.89","2sw0rumdd9l9256",847,"128.csv","","null","resources/maskTrios/BBA1.jpg","null","",NA,NA,NA,NA,""
"image-keyboard-response",280,220360,"0.0-3.89-2.89","2sw0rumdd9l9256",847,"128.csv","","null","resources/images/coin2.png","null","",NA,NA,NA,NA,""
"image-keyboard-response",281,220662,"0.0-3.90-0.90","2sw0rumdd9l9256",847,"128.csv","","300.19999998807907","resources/trios/L1T2A1.jpg","37","restless",0.4,0.4,0.6,0.168547286917039,"true"
"image-keyboard-response",282,221069,"0.0-3.90-1.90","2sw0rumdd9l9256",847,"128.csv","","null","resources/maskTrios/L1BB.jpg","null","",NA,NA,NA,NA,""
"image-keyboard-response",283,222273,"0.0-3.90-2.90","2sw0rumdd9l9256",847,"128.csv","","null","resources/images/coin2.png","null","",NA,NA,NA,NA,""
"image-keyboard-response",284,222664,"0.0-3.91-0.91","2sw0rumdd9l9256",847,"128.csv","","389.7999999821186","resources/trios/L4T2A2.jpg","39","restless",0.4,0.4,0.6,0.716597801981055,"false"
"image-keyboard-response",285,223071,"0.0-3.91-1.91","2sw0rumdd9l9256",847,"128.csv","","null","resources/maskTrios/BBA2.jpg","null","",NA,NA,NA,NA,""
"image-keyboard-response",286,224277,"0.0-3.91-2.91","2sw0rumdd9l9256",847,"128.csv","","null","resources/images/fishbone.png","null","",NA,NA,NA,NA,""
"image-keyboard-response",287,224573,"0.0-3.92-0.92","2sw0rumdd9l9256",847,"128.csv","","294.89999997615814","resources/trios/L4T2A1.jpg","37","restless",0.4,0.4,0.6,0.372119943480234,"true"
"image-keyboard-response",288,224980,"0.0-3.92-1.92","2sw0rumdd9l9256",847,"128.csv","","null","resources/maskTrios/L4BB.jpg","null","",NA,NA,NA,NA,""
"image-keyboard-response",289,226186,"0.0-3.92-2.92","2sw0rumdd9l9256",847,"128.csv","","null","resources/images/coin2.png","null","",NA,NA,NA,NA,""
"image-keyboard-response",290,226575,"0.0-3.93-0.93","2sw0rumdd9l9256",847,"128.csv","","388","resources/trios/L1T1A2.jpg","39","restless",0.4,0.4,0.6,0.188661237834908,"true"
"image-keyboard-response",291,226982,"0.0-3.93-1.93","2sw0rumdd9l9256",847,"128.csv","","null","resources/maskTrios/BBA2.jpg","null","",NA,NA,NA,NA,""
"image-keyboard-response",292,228188,"0.0-3.93-2.93","2sw0rumdd9l9256",847,"128.csv","","null","resources/images/coin2.png","null","",NA,NA,NA,NA,""
"image-keyboard-response",293,228426,"0.0-3.94-0.94","2sw0rumdd9l9256",847,"128.csv","","237","resources/trios/L1T1A1.jpg","37","restless",0.4,0.4,0.7,0.740465984572194,"false"
"image-keyboard-response",294,228833,"0.0-3.94-1.94","2sw0rumdd9l9256",847,"128.csv","","null","resources/maskTrios/L1BB.jpg","null","",NA,NA,NA,NA,""
"image-keyboard-response",295,230037,"0.0-3.94-2.94","2sw0rumdd9l9256",847,"128.csv","","null","resources/images/fishbone.png","null","",NA,NA,NA,NA,""
"image-keyboard-response",296,230292,"0.0-3.95-0.95","2sw0rumdd9l9256",847,"128.csv","","253.5","resources/trios/L4T1A2.jpg","39","restless",0.3,0.4,0.7,0.354484340300892,"true"
"image-keyboard-response",297,230699,"0.0-3.95-1.95","2sw0rumdd9l9256",847,"128.csv","","null","resources/maskTrios/BBA2.jpg","null","",NA,NA,NA,NA,""
"image-keyboard-response",298,231906,"0.0-3.95-2.95","2sw0rumdd9l9256",847,"128.csv","","null","resources/images/coin2.png","null","",NA,NA,NA,NA,""
"image-keyboard-response",299,232336,"0.0-3.96-0.96","2sw0rumdd9l9256",847,"128.csv","","429.7000000178814","resources/trios/L1T2A1.jpg","37","restless",0.3,0.4,0.7,0.966964075643203,"false"
"image-keyboard-response",300,232743,"0.0-3.96-1.96","2sw0rumdd9l9256",847,"128.csv","","null","resources/maskTrios/L1BB.jpg","null","",NA,NA,NA,NA,""
"image-keyboard-response",301,233949,"0.0-3.96-2.96","2sw0rumdd9l9256",847,"128.csv","","null","resources/images/fishbone.png","null","",NA,NA,NA,NA,""
"image-keyboard-response",302,234218,"0.0-3.97-0.97","2sw0rumdd9l9256",847,"128.csv","","267.2999999821186","resources/trios/L1T2A1.jpg","39","restless",0.3,0.4,0.7,0.715302873496126,"false"
"image-keyboard-response",303,234624,"0.0-3.97-1.97","2sw0rumdd9l9256",847,"128.csv","","null","resources/maskTrios/BBA1.jpg","null","",NA,NA,NA,NA,""
"image-keyboard-response",304,235831,"0.0-3.97-2.97","2sw0rumdd9l9256",847,"128.csv","","null","resources/images/fishbone.png","null","",NA,NA,NA,NA,""
"image-keyboard-response",305,236122,"0.0-3.98-0.98","2sw0rumdd9l9256",847,"128.csv","","290.60000002384186","resources/trios/L4T2A2.jpg","38","restless",0.3,0.4,0.7,0.324189360054758,"true"
"image-keyboard-response",306,236529,"0.0-3.98-1.98","2sw0rumdd9l9256",847,"128.csv","","null","resources/maskTrios/BT2B.jpg","null","",NA,NA,NA,NA,""
"image-keyboard-response",307,237733,"0.0-3.98-2.98","2sw0rumdd9l9256",847,"128.csv","","null","resources/images/coin2.png","null","",NA,NA,NA,NA,""
"image-keyboard-response",308,238015,"0.0-3.99-0.99","2sw0rumdd9l9256",847,"128.csv","","281.09999999403954","resources/trios/L1T1A2.jpg","37","restless",0.3,0.4,0.7,0.0750029162250629,"true"
"image-keyboard-response",309,238422,"0.0-3.99-1.99","2sw0rumdd9l9256",847,"128.csv","","null","resources/maskTrios/L1BB.jpg","null","",NA,NA,NA,NA,""
"image-keyboard-response",310,239626,"0.0-3.99-2.99","2sw0rumdd9l9256",847,"128.csv","","null","resources/images/coin2.png","null","",NA,NA,NA,NA,""
"image-keyboard-response",311,239703,"0.0-3.100-0.100","2sw0rumdd9l9256",847,"128.csv","","75.10000002384186","resources/trios/L4T2A1.jpg","39","restless",0.3,0.4,0.7,0.147914353146286,"true"
"image-keyboard-response",312,240109,"0.0-3.100-1.100","2sw0rumdd9l9256",847,"128.csv","","null","resources/maskTrios/BBA1.jpg","null","",NA,NA,NA,NA,""
"image-keyboard-response",313,241316,"0.0-3.100-2.100","2sw0rumdd9l9256",847,"128.csv","","null","resources/images/coin2.png","null","",NA,NA,NA,NA,""
"image-keyboard-response",314,245121,"0.0-3.101-0.101","2sw0rumdd9l9256",847,"128.csv","","3803.7999999821186","resources/trios/L1T1A1.jpg","39","restless",0.3,0.4,0.7,0.611408210489089,"true"
"image-keyboard-response",315,245523,"0.0-3.101-1.101","2sw0rumdd9l9256",847,"128.csv","","null","resources/maskTrios/BBA1.jpg","null","",NA,NA,NA,NA,""
"image-keyboard-response",316,246730,"0.0-3.101-2.101","2sw0rumdd9l9256",847,"128.csv","","null","resources/images/coin2.png","null","",NA,NA,NA,NA,""
"image-keyboard-response",317,246981,"0.0-3.102-0.102","2sw0rumdd9l9256",847,"128.csv","","249.90000000596046","resources/trios/L1T1A2.jpg","37","restless",0.4,0.4,0.7,0.761818415164653,"false"
"image-keyboard-response",318,247388,"0.0-3.102-1.102","2sw0rumdd9l9256",847,"128.csv","","null","resources/maskTrios/L1BB.jpg","null","",NA,NA,NA,NA,""
"image-keyboard-response",319,248594,"0.0-3.102-2.102","2sw0rumdd9l9256",847,"128.csv","","null","resources/images/fishbone.png","null","",NA,NA,NA,NA,""
"image-keyboard-response",320,248892,"0.0-3.103-0.103","2sw0rumdd9l9256",847,"128.csv","","296.19999998807907","resources/trios/L4T1A1.jpg","38","restless",0.4,0.4,0.7,0.749649944040856,"false"
"image-keyboard-response",321,249298,"0.0-3.103-1.103","2sw0rumdd9l9256",847,"128.csv","","null","resources/maskTrios/BT1B.jpg","null","",NA,NA,NA,NA,""
"image-keyboard-response",322,250504,"0.0-3.103-2.103","2sw0rumdd9l9256",847,"128.csv","","null","resources/images/fishbone.png","null","",NA,NA,NA,NA,""
"image-keyboard-response",323,251277,"0.0-3.104-0.104","2sw0rumdd9l9256",847,"128.csv","","771.7000000178814","resources/trios/L1T2A1.jpg","39","restless",0.4,0.4,0.7,0.39894937677015,"true"
"image-keyboard-response",324,251683,"0.0-3.104-1.104","2sw0rumdd9l9256",847,"128.csv","","null","resources/maskTrios/BBA1.jpg","null","",NA,NA,NA,NA,""
"image-keyboard-response",325,252889,"0.0-3.104-2.104","2sw0rumdd9l9256",847,"128.csv","","null","resources/images/coin2.png","null","",NA,NA,NA,NA,""
"image-keyboard-response",326,253353,"0.0-3.105-0.105","2sw0rumdd9l9256",847,"128.csv","","463","resources/trios/L4T2A1.jpg","37","restless",0.4,0.4,0.8,0.725974853569336,"false"
"image-keyboard-response",327,253760,"0.0-3.105-1.105","2sw0rumdd9l9256",847,"128.csv","","null","resources/maskTrios/L4BB.jpg","null","",NA,NA,NA,NA,""
"image-keyboard-response",328,254966,"0.0-3.105-2.105","2sw0rumdd9l9256",847,"128.csv","","null","resources/images/fishbone.png","null","",NA,NA,NA,NA,""
"image-keyboard-response",329,255389,"0.0-3.106-0.106","2sw0rumdd9l9256",847,"128.csv","","421.5","resources/trios/L4T1A1.jpg","37","restless",0.5,0.4,0.9,0.730431903348671,"false"
"image-keyboard-response",330,255794,"0.0-3.106-1.106","2sw0rumdd9l9256",847,"128.csv","","null","resources/maskTrios/L4BB.jpg","null","",NA,NA,NA,NA,""
"image-keyboard-response",331,257000,"0.0-3.106-2.106","2sw0rumdd9l9256",847,"128.csv","","null","resources/images/fishbone.png","null","",NA,NA,NA,NA,""
"image-keyboard-response",332,258508,"0.0-3.107-0.107","2sw0rumdd9l9256",847,"128.csv","","1507.3999999761581","resources/trios/L4T1A1.jpg","39","restless",0.5,0.4,0.9,0.568185423881806,"true"
"image-keyboard-response",333,258915,"0.0-3.107-1.107","2sw0rumdd9l9256",847,"128.csv","","null","resources/maskTrios/BBA1.jpg","null","",NA,NA,NA,NA,""
"image-keyboard-response",334,260120,"0.0-3.107-2.107","2sw0rumdd9l9256",847,"128.csv","","null","resources/images/coin2.png","null","",NA,NA,NA,NA,""
"image-keyboard-response",335,260467,"0.0-3.108-0.108","2sw0rumdd9l9256",847,"128.csv","","345.7999999821186","resources/trios/L4T1A1.jpg","37","restless",0.5,0.4,0.9,0.868028603806654,"false"
"image-keyboard-response",336,260874,"0.0-3.108-1.108","2sw0rumdd9l9256",847,"128.csv","","null","resources/maskTrios/L4BB.jpg","null","",NA,NA,NA,NA,""
"image-keyboard-response",337,262079,"0.0-3.108-2.108","2sw0rumdd9l9256",847,"128.csv","","null","resources/images/fishbone.png","null","",NA,NA,NA,NA,""
"image-keyboard-response",338,262341,"0.0-3.109-0.109","2sw0rumdd9l9256",847,"128.csv","","260.7999999821186","resources/trios/L4T1A1.jpg","39","restless",0.6,0.4,0.9,0.481607480663707,"true"
"image-keyboard-response",339,262747,"0.0-3.109-1.109","2sw0rumdd9l9256",847,"128.csv","","null","resources/maskTrios/BBA1.jpg","null","",NA,NA,NA,NA,""
"image-keyboard-response",340,263953,"0.0-3.109-2.109","2sw0rumdd9l9256",847,"128.csv","","null","resources/images/coin2.png","null","",NA,NA,NA,NA,""
"image-keyboard-response",341,264228,"0.0-3.110-0.110","2sw0rumdd9l9256",847,"128.csv","","273.60000002384186","resources/trios/L4T1A2.jpg","37","restless",0.6,0.5,0.8,0.308672652901146,"true"
"image-keyboard-response",342,264630,"0.0-3.110-1.110","2sw0rumdd9l9256",847,"128.csv","","null","resources/maskTrios/L4BB.jpg","null","",NA,NA,NA,NA,""
"image-keyboard-response",343,265837,"0.0-3.110-2.110","2sw0rumdd9l9256",847,"128.csv","","null","resources/images/coin2.png","null","",NA,NA,NA,NA,""
"image-keyboard-response",344,266115,"0.0-3.111-0.111","2sw0rumdd9l9256",847,"128.csv","","277.2000000178814","resources/trios/L1T1A1.jpg","39","restless",0.6,0.5,0.8,0.403193982318251,"true"
"image-keyboard-response",345,266522,"0.0-3.111-1.111","2sw0rumdd9l9256",847,"128.csv","","null","resources/maskTrios/BBA1.jpg","null","",NA,NA,NA,NA,""
"image-keyboard-response",346,267726,"0.0-3.111-2.111","2sw0rumdd9l9256",847,"128.csv","","null","resources/images/coin2.png","null","",NA,NA,NA,NA,""
"image-keyboard-response",347,268259,"0.0-3.112-0.112","2sw0rumdd9l9256",847,"128.csv","","531.5","resources/trios/L1T1A2.jpg","37","restless",0.6,0.5,0.7,0.233186854242333,"true"
"image-keyboard-response",348,268666,"0.0-3.112-1.112","2sw0rumdd9l9256",847,"128.csv","","null","resources/maskTrios/L1BB.jpg","null","",NA,NA,NA,NA,""
"image-keyboard-response",349,269872,"0.0-3.112-2.112","2sw0rumdd9l9256",847,"128.csv","","null","resources/images/coin2.png","null","",NA,NA,NA,NA,""
"image-keyboard-response",350,270176,"0.0-3.113-0.113","2sw0rumdd9l9256",847,"128.csv","","302.69999998807907","resources/trios/L4T1A2.jpg","39","restless",0.6,0.5,0.7,0.345325677546618,"true"
"image-keyboard-response",351,270583,"0.0-3.113-1.113","2sw0rumdd9l9256",847,"128.csv","","null","resources/maskTrios/BBA2.jpg","null","",NA,NA,NA,NA,""
"image-keyboard-response",352,271789,"0.0-3.113-2.113","2sw0rumdd9l9256",847,"128.csv","","null","resources/images/coin2.png","null","",NA,NA,NA,NA,""
"image-keyboard-response",353,272068,"0.0-3.114-0.114","2sw0rumdd9l9256",847,"128.csv","","277.69999998807907","resources/trios/L4T1A1.jpg","37","restless",0.6,0.5,0.7,0.550475626849122,"true"
"image-keyboard-response",354,272475,"0.0-3.114-1.114","2sw0rumdd9l9256",847,"128.csv","","null","resources/maskTrios/L4BB.jpg","null","",NA,NA,NA,NA,""
"image-keyboard-response",355,273679,"0.0-3.114-2.114","2sw0rumdd9l9256",847,"128.csv","","null","resources/images/coin2.png","null","",NA,NA,NA,NA,""
"image-keyboard-response",356,273954,"0.0-3.115-0.115","2sw0rumdd9l9256",847,"128.csv","","274","resources/trios/L1T1A2.jpg","39","restless",0.6,0.4,0.6,0.840024724050643,"false"
"image-keyboard-response",357,274360,"0.0-3.115-1.115","2sw0rumdd9l9256",847,"128.csv","","null","resources/maskTrios/BBA2.jpg","null","",NA,NA,NA,NA,""
"image-keyboard-response",358,275566,"0.0-3.115-2.115","2sw0rumdd9l9256",847,"128.csv","","null","resources/images/fishbone.png","null","",NA,NA,NA,NA,""
"image-keyboard-response",359,275871,"0.0-3.116-0.116","2sw0rumdd9l9256",847,"128.csv","","303.30000001192093","resources/trios/L4T1A1.jpg","37","restless",0.7,0.5,0.6,0.667099413522459,"true"
"image-keyboard-response",360,276277,"0.0-3.116-1.116","2sw0rumdd9l9256",847,"128.csv","","null","resources/maskTrios/L4BB.jpg","null","",NA,NA,NA,NA,""
"image-keyboard-response",361,277481,"0.0-3.116-2.116","2sw0rumdd9l9256",847,"128.csv","","null","resources/images/coin2.png","null","",NA,NA,NA,NA,""
"image-keyboard-response",362,277766,"0.0-3.117-0.117","2sw0rumdd9l9256",847,"128.csv","","283.5","resources/trios/L4T2A1.jpg","38","restless",0.7,0.5,0.6,0.902051798659941,"false"
"image-keyboard-response",363,278172,"0.0-3.117-1.117","2sw0rumdd9l9256",847,"128.csv","","null","resources/maskTrios/BT2B.jpg","null","",NA,NA,NA,NA,""
"image-keyboard-response",364,279378,"0.0-3.117-2.117","2sw0rumdd9l9256",847,"128.csv","","null","resources/images/fishbone.png","null","",NA,NA,NA,NA,""
"image-keyboard-response",365,279679,"0.0-3.118-0.118","2sw0rumdd9l9256",847,"128.csv","","299","resources/trios/L4T2A1.jpg","37","restless",0.7,0.5,0.6,0.66196822035446,"true"
"image-keyboard-response",366,280085,"0.0-3.118-1.118","2sw0rumdd9l9256",847,"128.csv","","null","resources/maskTrios/L4BB.jpg","null","",NA,NA,NA,NA,""
"image-keyboard-response",367,281292,"0.0-3.118-2.118","2sw0rumdd9l9256",847,"128.csv","","null","resources/images/coin2.png","null","",NA,NA,NA,NA,""
"image-keyboard-response",368,281556,"0.0-3.119-0.119","2sw0rumdd9l9256",847,"128.csv","","262.7000000178814","resources/trios/L1T2A1.jpg","38","restless",0.7,0.6,0.6,0.031491461450484,"true"
"image-keyboard-response",369,281962,"0.0-3.119-1.119","2sw0rumdd9l9256",847,"128.csv","","null","resources/maskTrios/BT2B.jpg","null","",NA,NA,NA,NA,""
"image-keyboard-response",370,283164,"0.0-3.119-2.119","2sw0rumdd9l9256",847,"128.csv","","null","resources/images/coin2.png","null","",NA,NA,NA,NA,""
"image-keyboard-response",371,283450,"0.0-3.120-0.120","2sw0rumdd9l9256",847,"128.csv","","284.30000001192093","resources/trios/L4T2A1.jpg","37","restless",0.7,0.6,0.6,0.983350438286795,"false"
"image-keyboard-response",372,283857,"0.0-3.120-1.120","2sw0rumdd9l9256",847,"128.csv","","null","resources/maskTrios/L4BB.jpg","null","",NA,NA,NA,NA,""
"image-keyboard-response",373,285063,"0.0-3.120-2.120","2sw0rumdd9l9256",847,"128.csv","","null","resources/images/fishbone.png","null","",NA,NA,NA,NA,""
"image-keyboard-response",374,285238,"0.0-3.121-0.121","2sw0rumdd9l9256",847,"128.csv","","173.59999999403954","resources/trios/L4T1A1.jpg","39","restless",0.7,0.6,0.6,0.162702351383621,"true"
"image-keyboard-response",375,285644,"0.0-3.121-1.121","2sw0rumdd9l9256",847,"128.csv","","null","resources/maskTrios/BBA1.jpg","null","",NA,NA,NA,NA,""
"image-keyboard-response",376,286846,"0.0-3.121-2.121","2sw0rumdd9l9256",847,"128.csv","","null","resources/images/coin2.png","null","",NA,NA,NA,NA,""
"image-keyboard-response",377,287110,"0.0-3.122-0.122","2sw0rumdd9l9256",847,"128.csv","","262.90000000596046","resources/trios/L4T1A2.jpg","38","restless",0.7,0.6,0.6,0.277269923562081,"true"
"image-keyboard-response",378,287515,"0.0-3.122-1.122","2sw0rumdd9l9256",847,"128.csv","","null","resources/maskTrios/BT1B.jpg","null","",NA,NA,NA,NA,""
"image-keyboard-response",379,288718,"0.0-3.122-2.122","2sw0rumdd9l9256",847,"128.csv","","null","resources/images/coin2.png","null","",NA,NA,NA,NA,""
"image-keyboard-response",380,289022,"0.0-3.123-0.123","2sw0rumdd9l9256",847,"128.csv","","302.59999999403954","resources/trios/L1T2A2.jpg","37","restless",0.7,0.6,0.6,0.511865113508497,"true"
"image-keyboard-response",381,289427,"0.0-3.123-1.123","2sw0rumdd9l9256",847,"128.csv","","null","resources/maskTrios/L1BB.jpg","null","",NA,NA,NA,NA,""
"image-keyboard-response",382,290634,"0.0-3.123-2.123","2sw0rumdd9l9256",847,"128.csv","","null","resources/images/coin2.png","null","",NA,NA,NA,NA,""
"image-keyboard-response",383,290823,"0.0-3.124-0.124","2sw0rumdd9l9256",847,"128.csv","","188","resources/trios/L1T2A2.jpg","39","restless",0.7,0.6,0.6,0.807801050932899,"false"
"image-keyboard-response",384,291230,"0.0-3.124-1.124","2sw0rumdd9l9256",847,"128.csv","","null","resources/maskTrios/BBA2.jpg","null","",NA,NA,NA,NA,""
"image-keyboard-response",385,292436,"0.0-3.124-2.124","2sw0rumdd9l9256",847,"128.csv","","null","resources/images/fishbone.png","null","",NA,NA,NA,NA,""
"image-keyboard-response",386,292735,"0.0-3.125-0.125","2sw0rumdd9l9256",847,"128.csv","","297.69999998807907","resources/trios/L4T2A2.jpg","37","restless",0.7,0.6,0.6,0.194668825631892,"true"
"image-keyboard-response",387,293142,"0.0-3.125-1.125","2sw0rumdd9l9256",847,"128.csv","","null","resources/maskTrios/L4BB.jpg","null","",NA,NA,NA,NA,""
"image-keyboard-response",388,294348,"0.0-3.125-2.125","2sw0rumdd9l9256",847,"128.csv","","null","resources/images/coin2.png","null","",NA,NA,NA,NA,""
"image-keyboard-response",389,294653,"0.0-3.126-0.126","2sw0rumdd9l9256",847,"128.csv","","303.69999998807907","resources/trios/L1T2A1.jpg","38","restless",0.7,0.6,0.6,0.606960362752016,"false"
"image-keyboard-response",390,295060,"0.0-3.126-1.126","2sw0rumdd9l9256",847,"128.csv","","null","resources/maskTrios/BT2B.jpg","null","",NA,NA,NA,NA,""
"image-keyboard-response",391,296266,"0.0-3.126-2.126","2sw0rumdd9l9256",847,"128.csv","","null","resources/images/fishbone.png","null","",NA,NA,NA,NA,""
"image-keyboard-response",392,296671,"0.0-3.127-0.127","2sw0rumdd9l9256",847,"128.csv","","403.5","resources/trios/L1T2A2.jpg","37","restless",0.7,0.5,0.6,0.249826871803505,"true"
"image-keyboard-response",393,297078,"0.0-3.127-1.127","2sw0rumdd9l9256",847,"128.csv","","null","resources/maskTrios/L1BB.jpg","null","",NA,NA,NA,NA,""
"image-keyboard-response",394,298280,"0.0-3.127-2.127","2sw0rumdd9l9256",847,"128.csv","","null","resources/images/coin2.png","null","",NA,NA,NA,NA,""
"image-keyboard-response",395,298578,"0.0-3.128-0.128","2sw0rumdd9l9256",847,"128.csv","","296.90000000596046","resources/trios/L4T1A1.jpg","37","restless",0.6,0.5,0.5,0.789697896742353,"false"
"image-keyboard-response",396,298985,"0.0-3.128-1.128","2sw0rumdd9l9256",847,"128.csv","","null","resources/maskTrios/L4BB.jpg","null","",NA,NA,NA,NA,""
"image-keyboard-response",397,300191,"0.0-3.128-2.128","2sw0rumdd9l9256",847,"128.csv","","null","resources/images/fishbone.png","null","",NA,NA,NA,NA,""
"image-keyboard-response",398,300476,"0.0-3.129-0.129","2sw0rumdd9l9256",847,"128.csv","","283.2000000178814","resources/trios/L4T1A2.jpg","38","restless",0.6,0.5,0.5,0.0296598725957555,"true"
"image-keyboard-response",399,300882,"0.0-3.129-1.129","2sw0rumdd9l9256",847,"128.csv","","null","resources/maskTrios/BT1B.jpg","null","",NA,NA,NA,NA,""
"image-keyboard-response",400,302088,"0.0-3.129-2.129","2sw0rumdd9l9256",847,"128.csv","","null","resources/images/coin2.png","null","",NA,NA,NA,NA,""
"image-keyboard-response",401,302411,"0.0-3.130-0.130","2sw0rumdd9l9256",847,"128.csv","","321","resources/trios/L4T2A2.jpg","39","restless",0.5,0.5,0.5,0.502259139106349,"false"
"image-keyboard-response",402,302816,"0.0-3.130-1.130","2sw0rumdd9l9256",847,"128.csv","","null","resources/maskTrios/BBA2.jpg","null","",NA,NA,NA,NA,""
"image-keyboard-response",403,304023,"0.0-3.130-2.130","2sw0rumdd9l9256",847,"128.csv","","null","resources/images/fishbone.png","null","",NA,NA,NA,NA,""
"image-keyboard-response",404,304539,"0.0-3.131-0.131","2sw0rumdd9l9256",847,"128.csv","","515.0999999940395","resources/trios/L4T2A2.jpg","37","restless",0.4,0.5,0.4,0.418518717837238,"false"
"image-keyboard-response",405,304941,"0.0-3.131-1.131","2sw0rumdd9l9256",847,"128.csv","","null","resources/maskTrios/L4BB.jpg","null","",NA,NA,NA,NA,""
"image-keyboard-response",406,306147,"0.0-3.131-2.131","2sw0rumdd9l9256",847,"128.csv","","null","resources/images/fishbone.png","null","",NA,NA,NA,NA,""
"image-keyboard-response",407,306400,"0.0-3.132-0.132","2sw0rumdd9l9256",847,"128.csv","","251.60000002384186","resources/trios/L1T1A1.jpg","37","restless",0.4,0.5,0.4,0.717029060827135,"false"
"image-keyboard-response",408,306807,"0.0-3.132-1.132","2sw0rumdd9l9256",847,"128.csv","","null","resources/maskTrios/L1BB.jpg","null","",NA,NA,NA,NA,""
"image-keyboard-response",409,308011,"0.0-3.132-2.132","2sw0rumdd9l9256",847,"128.csv","","null","resources/images/fishbone.png","null","",NA,NA,NA,NA,""
"image-keyboard-response",410,311050,"0.0-3.133-0.133","2sw0rumdd9l9256",847,"128.csv","","3037","resources/trios/L1T2A2.jpg","39","restless",0.5,0.5,0.4,0.916856565294949,"false"
"image-keyboard-response",411,311456,"0.0-3.133-1.133","2sw0rumdd9l9256",847,"128.csv","","null","resources/maskTrios/BBA2.jpg","null","",NA,NA,NA,NA,""
"image-keyboard-response",412,312663,"0.0-3.133-2.133","2sw0rumdd9l9256",847,"128.csv","","null","resources/images/fishbone.png","null","",NA,NA,NA,NA,""
"image-keyboard-response",413,313076,"0.0-3.134-0.134","2sw0rumdd9l9256",847,"128.csv","","412","resources/trios/L1T1A2.jpg","37","restless",0.5,0.5,0.4,0.783105780273998,"false"
"image-keyboard-response",414,313482,"0.0-3.134-1.134","2sw0rumdd9l9256",847,"128.csv","","null","resources/maskTrios/L1BB.jpg","null","",NA,NA,NA,NA,""
"image-keyboard-response",415,314687,"0.0-3.134-2.134","2sw0rumdd9l9256",847,"128.csv","","null","resources/images/fishbone.png","null","",NA,NA,NA,NA,""
"image-keyboard-response",416,314948,"0.0-3.135-0.135","2sw0rumdd9l9256",847,"128.csv","","259.90000000596046","resources/trios/L4T2A2.jpg","38","restless",0.5,0.5,0.4,0.212976514154928,"true"
"image-keyboard-response",417,315355,"0.0-3.135-1.135","2sw0rumdd9l9256",847,"128.csv","","null","resources/maskTrios/BT2B.jpg","null","",NA,NA,NA,NA,""
"image-keyboard-response",418,316561,"0.0-3.135-2.135","2sw0rumdd9l9256",847,"128.csv","","null","resources/images/coin2.png","null","",NA,NA,NA,NA,""
"image-keyboard-response",419,317268,"0.0-3.136-0.136","2sw0rumdd9l9256",847,"128.csv","","704.8000000119209","resources/trios/L4T1A2.jpg","37","restless",0.5,0.5,0.4,0.624461591173364,"false"
"image-keyboard-response",420,317674,"0.0-3.136-1.136","2sw0rumdd9l9256",847,"128.csv","","null","resources/maskTrios/L4BB.jpg","null","",NA,NA,NA,NA,""
"image-keyboard-response",421,318881,"0.0-3.136-2.136","2sw0rumdd9l9256",847,"128.csv","","null","resources/images/fishbone.png","null","",NA,NA,NA,NA,""
"image-keyboard-response",422,319331,"0.0-3.137-0.137","2sw0rumdd9l9256",847,"128.csv","","449.2999999821186","resources/trios/L1T1A1.jpg","39","restless",0.5,0.5,0.4,0.772001641391644,"false"
"image-keyboard-response",423,319738,"0.0-3.137-1.137","2sw0rumdd9l9256",847,"128.csv","","null","resources/maskTrios/BBA1.jpg","null","",NA,NA,NA,NA,""
"image-keyboard-response",424,320944,"0.0-3.137-2.137","2sw0rumdd9l9256",847,"128.csv","","null","resources/images/fishbone.png","null","",NA,NA,NA,NA,""
"image-keyboard-response",425,321601,"0.0-3.138-0.138","2sw0rumdd9l9256",847,"128.csv","","655.2000000178814","resources/trios/L4T2A2.jpg","38","restless",0.5,0.5,0.4,0.228080566403596,"true"
"image-keyboard-response",426,322003,"0.0-3.138-1.138","2sw0rumdd9l9256",847,"128.csv","","null","resources/maskTrios/BT2B.jpg","null","",NA,NA,NA,NA,""
"image-keyboard-response",427,323210,"0.0-3.138-2.138","2sw0rumdd9l9256",847,"128.csv","","null","resources/images/coin2.png","null","",NA,NA,NA,NA,""
"image-keyboard-response",428,324572,"0.0-3.139-0.139","2sw0rumdd9l9256",847,"128.csv","","1360.5","resources/trios/L4T1A2.jpg","37","restless",0.5,0.5,0.4,0.895206339977397,"false"
"image-keyboard-response",429,324978,"0.0-3.139-1.139","2sw0rumdd9l9256",847,"128.csv","","null","resources/maskTrios/L4BB.jpg","null","",NA,NA,NA,NA,""
"image-keyboard-response",430,326184,"0.0-3.139-2.139","2sw0rumdd9l9256",847,"128.csv","","null","resources/images/fishbone.png","null","",NA,NA,NA,NA,""
"image-keyboard-response",431,326558,"0.0-3.140-0.140","2sw0rumdd9l9256",847,"128.csv","","372.09999999403954","resources/trios/L1T1A1.jpg","39","restless",0.5,0.4,0.4,0.0058403639194331,"true"
"image-keyboard-response",432,326959,"0.0-3.140-1.140","2sw0rumdd9l9256",847,"128.csv","","null","resources/maskTrios/BBA1.jpg","null","",NA,NA,NA,NA,""
"image-keyboard-response",433,328160,"0.0-3.140-2.140","2sw0rumdd9l9256",847,"128.csv","","null","resources/images/coin2.png","null","",NA,NA,NA,NA,""
"image-keyboard-response",434,328654,"0.0-3.141-0.141","2sw0rumdd9l9256",847,"128.csv","","492.59999999403954","resources/trios/L4T2A1.jpg","38","restless",0.5,0.4,0.4,0.896664769439552,"false"
"image-keyboard-response",435,329056,"0.0-3.141-1.141","2sw0rumdd9l9256",847,"128.csv","","null","resources/maskTrios/BT2B.jpg","null","",NA,NA,NA,NA,""
"image-keyboard-response",436,330262,"0.0-3.141-2.141","2sw0rumdd9l9256",847,"128.csv","","null","resources/images/fishbone.png","null","",NA,NA,NA,NA,""
"image-keyboard-response",437,331021,"0.0-3.142-0.142","2sw0rumdd9l9256",847,"128.csv","","757.5","resources/trios/L4T2A2.jpg","37","restless",0.5,0.4,0.4,0.515139811579033,"false"
"image-keyboard-response",438,331428,"0.0-3.142-1.142","2sw0rumdd9l9256",847,"128.csv","","null","resources/maskTrios/L4BB.jpg","null","",NA,NA,NA,NA,""
"image-keyboard-response",439,332630,"0.0-3.142-2.142","2sw0rumdd9l9256",847,"128.csv","","null","resources/images/fishbone.png","null","",NA,NA,NA,NA,""
"image-keyboard-response",440,336370,"0.0-3.143-0.143","2sw0rumdd9l9256",847,"128.csv","","3739","resources/trios/L1T1A2.jpg","37","restless",0.5,0.4,0.4,0.977116610054119,"false"
"image-keyboard-response",441,336777,"0.0-3.143-1.143","2sw0rumdd9l9256",847,"128.csv","","null","resources/maskTrios/L1BB.jpg","null","",NA,NA,NA,NA,""
"image-keyboard-response",442,337983,"0.0-3.143-2.143","2sw0rumdd9l9256",847,"128.csv","","null","resources/images/fishbone.png","null","",NA,NA,NA,NA,""
"image-keyboard-response",443,345929,"0.0-3.144-0.144","2sw0rumdd9l9256",847,"128.csv","","7945.4000000059605","resources/trios/L4T2A2.jpg","39","restless",0.4,0.4,0.4,0.695466265010377,"false"
"image-keyboard-response",444,346337,"0.0-3.144-1.144","2sw0rumdd9l9256",847,"128.csv","","null","resources/maskTrios/BBA2.jpg","null","",NA,NA,NA,NA,""
"image-keyboard-response",445,347543,"0.0-3.144-2.144","2sw0rumdd9l9256",847,"128.csv","","null","resources/images/fishbone.png","null","",NA,NA,NA,NA,""
"image-keyboard-response",446,349319,"0.0-3.145-0.145","2sw0rumdd9l9256",847,"128.csv","","1775.2000000178814","resources/trios/L1T2A1.jpg","38","restless",0.4,0.4,0.4,0.377709030676155,"true"
"image-keyboard-response",447,349726,"0.0-3.145-1.145","2sw0rumdd9l9256",847,"128.csv","","null","resources/maskTrios/BT2B.jpg","null","",NA,NA,NA,NA,""
"image-keyboard-response",448,350928,"0.0-3.145-2.145","2sw0rumdd9l9256",847,"128.csv","","null","resources/images/coin2.png","null","",NA,NA,NA,NA,""
"image-keyboard-response",449,351811,"0.0-3.146-0.146","2sw0rumdd9l9256",847,"128.csv","","882.3000000119209","resources/trios/L1T2A2.jpg","37","restless",0.4,0.4,0.4,0.426010137395821,"false"
"image-keyboard-response",450,352217,"0.0-3.146-1.146","2sw0rumdd9l9256",847,"128.csv","","null","resources/maskTrios/L1BB.jpg","null","",NA,NA,NA,NA,""
"image-keyboard-response",451,353423,"0.0-3.146-2.146","2sw0rumdd9l9256",847,"128.csv","","null","resources/images/fishbone.png","null","",NA,NA,NA,NA,""
"image-keyboard-response",452,353743,"0.0-3.147-0.147","2sw0rumdd9l9256",847,"128.csv","","319.09999999403954","resources/trios/L1T1A2.jpg","39","restless",0.4,0.4,0.4,0.818501821257157,"false"
"image-keyboard-response",453,354146,"0.0-3.147-1.147","2sw0rumdd9l9256",847,"128.csv","","null","resources/maskTrios/BBA2.jpg","null","",NA,NA,NA,NA,""
"image-keyboard-response",454,355352,"0.0-3.147-2.147","2sw0rumdd9l9256",847,"128.csv","","null","resources/images/fishbone.png","null","",NA,NA,NA,NA,""
"image-keyboard-response",455,355599,"0.0-3.148-0.148","2sw0rumdd9l9256",847,"128.csv","","245.7999999821186","resources/trios/L4T1A2.jpg","38","restless",0.4,0.5,0.4,0.865632002459627,"false"
"image-keyboard-response",456,356001,"0.0-3.148-1.148","2sw0rumdd9l9256",847,"128.csv","","null","resources/maskTrios/BT1B.jpg","null","",NA,NA,NA,NA,""
"image-keyboard-response",457,357207,"0.0-3.148-2.148","2sw0rumdd9l9256",847,"128.csv","","null","resources/images/fishbone.png","null","",NA,NA,NA,NA,""
"image-keyboard-response",458,357603,"0.0-3.149-0.149","2sw0rumdd9l9256",847,"128.csv","","395","resources/trios/L1T2A1.jpg","37","restless",0.4,0.5,0.4,0.856006766593996,"false"
"image-keyboard-response",459,358010,"0.0-3.149-1.149","2sw0rumdd9l9256",847,"128.csv","","null","resources/maskTrios/L1BB.jpg","null","",NA,NA,NA,NA,""
"image-keyboard-response",460,359217,"0.0-3.149-2.149","2sw0rumdd9l9256",847,"128.csv","","null","resources/images/fishbone.png","null","",NA,NA,NA,NA,""
"image-keyboard-response",461,369970,"0.0-3.150-0.150","2sw0rumdd9l9256",847,"128.csv","","10751.59999999404","resources/trios/L4T2A2.jpg","39","restless",0.4,0.5,0.4,0.948635428073888,"false"
"image-keyboard-response",462,370374,"0.0-3.150-1.150","2sw0rumdd9l9256",847,"128.csv","","null","resources/maskTrios/BBA2.jpg","null","",NA,NA,NA,NA,""
"image-keyboard-response",463,371575,"0.0-3.150-2.150","2sw0rumdd9l9256",847,"128.csv","","null","resources/images/fishbone.png","null","",NA,NA,NA,NA,""
"image-keyboard-response",464,372026,"0.0-3.151-0.151","2sw0rumdd9l9256",847,"128.csv","","448.7999999821186","resources/trios/L4T1A1.jpg","37","restless",0.4,0.5,0.4,0.53743392485374,"false"
"image-keyboard-response",465,372432,"0.0-3.151-1.151","2sw0rumdd9l9256",847,"128.csv","","null","resources/maskTrios/L4BB.jpg","null","",NA,NA,NA,NA,""
"image-keyboard-response",466,373633,"0.0-3.151-2.151","2sw0rumdd9l9256",847,"128.csv","","null","resources/images/fishbone.png","null","",NA,NA,NA,NA,""
"image-keyboard-response",467,374139,"0.0-3.152-0.152","2sw0rumdd9l9256",847,"128.csv","","504.7999999821186","resources/trios/L1T2A2.jpg","38","restless",0.4,0.5,0.4,0.409564963868725,"true"
"image-keyboard-response",468,374541,"0.0-3.152-1.152","2sw0rumdd9l9256",847,"128.csv","","null","resources/maskTrios/BT2B.jpg","null","",NA,NA,NA,NA,""
"image-keyboard-response",469,375748,"0.0-3.152-2.152","2sw0rumdd9l9256",847,"128.csv","","null","resources/images/coin2.png","null","",NA,NA,NA,NA,""
"image-keyboard-response",470,376374,"0.0-3.153-0.153","2sw0rumdd9l9256",847,"128.csv","","624.5","resources/trios/L1T1A2.jpg","39","restless",0.4,0.5,0.4,0.272366213472732,"true"
"image-keyboard-response",471,376781,"0.0-3.153-1.153","2sw0rumdd9l9256",847,"128.csv","","null","resources/maskTrios/BBA2.jpg","null","",NA,NA,NA,NA,""
"image-keyboard-response",472,377987,"0.0-3.153-2.153","2sw0rumdd9l9256",847,"128.csv","","null","resources/images/coin2.png","null","",NA,NA,NA,NA,""
"image-keyboard-response",473,378342,"0.0-3.154-0.154","2sw0rumdd9l9256",847,"128.csv","","353.40000000596046","resources/trios/L1T1A1.jpg","37","restless",0.4,0.5,0.4,0.117711682946977,"true"
"image-keyboard-response",474,378749,"0.0-3.154-1.154","2sw0rumdd9l9256",847,"128.csv","","null","resources/maskTrios/L1BB.jpg","null","",NA,NA,NA,NA,""
"image-keyboard-response",475,379955,"0.0-3.154-2.154","2sw0rumdd9l9256",847,"128.csv","","null","resources/images/coin2.png","null","",NA,NA,NA,NA,""
"image-keyboard-response",476,380190,"0.0-3.155-0.155","2sw0rumdd9l9256",847,"128.csv","","233.59999999403954","resources/trios/L1T2A2.jpg","39","restless",0.4,0.5,0.3,0.570915291818752,"false"
"image-keyboard-response",477,380594,"0.0-3.155-1.155","2sw0rumdd9l9256",847,"128.csv","","null","resources/maskTrios/BBA2.jpg","null","",NA,NA,NA,NA,""
"image-keyboard-response",478,381801,"0.0-3.155-2.155","2sw0rumdd9l9256",847,"128.csv","","null","resources/images/fishbone.png","null","",NA,NA,NA,NA,""
"image-keyboard-response",479,382162,"0.0-3.156-0.156","2sw0rumdd9l9256",847,"128.csv","","360","resources/trios/L1T2A2.jpg","38","restless",0.4,0.5,0.4,0.896619130358931,"false"
"image-keyboard-response",480,382569,"0.0-3.156-1.156","2sw0rumdd9l9256",847,"128.csv","","null","resources/maskTrios/BT2B.jpg","null","",NA,NA,NA,NA,""
"image-keyboard-response",481,383775,"0.0-3.156-2.156","2sw0rumdd9l9256",847,"128.csv","","null","resources/images/fishbone.png","null","",NA,NA,NA,NA,""
"image-keyboard-response",482,384389,"0.0-3.157-0.157","2sw0rumdd9l9256",847,"128.csv","","612.5999999940395","resources/trios/L4T1A1.jpg","37","restless",0.4,0.6,0.4,0.495081359984134,"false"
"image-keyboard-response",483,384795,"0.0-3.157-1.157","2sw0rumdd9l9256",847,"128.csv","","null","resources/maskTrios/L4BB.jpg","null","",NA,NA,NA,NA,""
"image-keyboard-response",484,386002,"0.0-3.157-2.157","2sw0rumdd9l9256",847,"128.csv","","null","resources/images/fishbone.png","null","",NA,NA,NA,NA,""
"image-keyboard-response",485,386409,"0.0-3.158-0.158","2sw0rumdd9l9256",847,"128.csv","","406.60000002384186","resources/trios/L4T1A1.jpg","39","restless",0.3,0.6,0.4,0.850969108854893,"false"
"image-keyboard-response",486,386816,"0.0-3.158-1.158","2sw0rumdd9l9256",847,"128.csv","","null","resources/maskTrios/BBA1.jpg","null","",NA,NA,NA,NA,""
"image-keyboard-response",487,388019,"0.0-3.158-2.158","2sw0rumdd9l9256",847,"128.csv","","null","resources/images/fishbone.png","null","",NA,NA,NA,NA,""
"image-keyboard-response",488,388540,"0.0-3.159-0.159","2sw0rumdd9l9256",847,"128.csv","","519.2999999821186","resources/trios/L1T2A2.jpg","37","restless",0.3,0.7,0.4,0.293792918230364,"true"
"image-keyboard-response",489,388947,"0.0-3.159-1.159","2sw0rumdd9l9256",847,"128.csv","","null","resources/maskTrios/L1BB.jpg","null","",NA,NA,NA,NA,""
"image-keyboard-response",490,390153,"0.0-3.159-2.159","2sw0rumdd9l9256",847,"128.csv","","null","resources/images/coin2.png","null","",NA,NA,NA,NA,""
"image-keyboard-response",491,390715,"0.0-3.160-0.160","2sw0rumdd9l9256",847,"128.csv","","560.9000000059605","resources/trios/L1T2A1.jpg","39","restless",0.2,0.7,0.4,0.585403079952117,"false"
"image-keyboard-response",492,391122,"0.0-3.160-1.160","2sw0rumdd9l9256",847,"128.csv","","null","resources/maskTrios/BBA1.jpg","null","",NA,NA,NA,NA,""
"image-keyboard-response",493,392328,"0.0-3.160-2.160","2sw0rumdd9l9256",847,"128.csv","","null","resources/images/fishbone.png","null","",NA,NA,NA,NA,""
"image-keyboard-response",494,392621,"0.0-3.161-0.161","2sw0rumdd9l9256",847,"128.csv","","290.7999999821186","resources/trios/L1T1A2.jpg","37","restless",0.2,0.7,0.4,0.0712156073956345,"true"
"image-keyboard-response",495,393027,"0.0-3.161-1.161","2sw0rumdd9l9256",847,"128.csv","","null","resources/maskTrios/L1BB.jpg","null","",NA,NA,NA,NA,""
"image-keyboard-response",496,394234,"0.0-3.161-2.161","2sw0rumdd9l9256",847,"128.csv","","null","resources/images/coin2.png","null","",NA,NA,NA,NA,""
"image-keyboard-response",497,394664,"0.0-3.162-0.162","2sw0rumdd9l9256",847,"128.csv","","428.7000000178814","resources/trios/L4T2A1.jpg","39","restless",0.3,0.7,0.4,0.720570447280068,"false"
"image-keyboard-response",498,395070,"0.0-3.162-1.162","2sw0rumdd9l9256",847,"128.csv","","null","resources/maskTrios/BBA1.jpg","null","",NA,NA,NA,NA,""
"image-keyboard-response",499,396273,"0.0-3.162-2.162","2sw0rumdd9l9256",847,"128.csv","","null","resources/images/fishbone.png","null","",NA,NA,NA,NA,""
"image-keyboard-response",500,401025,"0.0-3.163-0.163","2sw0rumdd9l9256",847,"128.csv","","4750.5","resources/trios/L4T1A2.jpg","37","restless",0.4,0.7,0.4,0.310485149867385,"true"
"image-keyboard-response",501,401432,"0.0-3.163-1.163","2sw0rumdd9l9256",847,"128.csv","","null","resources/maskTrios/L4BB.jpg","null","",NA,NA,NA,NA,""
"image-keyboard-response",502,402638,"0.0-3.163-2.163","2sw0rumdd9l9256",847,"128.csv","","null","resources/images/coin2.png","null","",NA,NA,NA,NA,""
"image-keyboard-response",503,404080,"0.0-3.164-0.164","2sw0rumdd9l9256",847,"128.csv","","1440.2000000178814","resources/trios/L1T1A1.jpg","39","restless",0.4,0.7,0.4,0.347867188905299,"true"
"image-keyboard-response",504,404484,"0.0-3.164-1.164","2sw0rumdd9l9256",847,"128.csv","","null","resources/maskTrios/BBA1.jpg","null","",NA,NA,NA,NA,""
"image-keyboard-response",505,405691,"0.0-3.164-2.164","2sw0rumdd9l9256",847,"128.csv","","null","resources/images/coin2.png","null","",NA,NA,NA,NA,""
"image-keyboard-response",506,408145,"0.0-3.165-0.165","2sw0rumdd9l9256",847,"128.csv","","2452.300000011921","resources/trios/L4T1A2.jpg","37","restless",0.4,0.7,0.4,0.0805897134022169,"true"
"image-keyboard-response",507,408552,"0.0-3.165-1.165","2sw0rumdd9l9256",847,"128.csv","","null","resources/maskTrios/L4BB.jpg","null","",NA,NA,NA,NA,""
"image-keyboard-response",508,409755,"0.0-3.165-2.165","2sw0rumdd9l9256",847,"128.csv","","null","resources/images/coin2.png","null","",NA,NA,NA,NA,""
"image-keyboard-response",509,410081,"0.0-3.166-0.166","2sw0rumdd9l9256",847,"128.csv","","324.60000002384186","resources/trios/L1T1A1.jpg","39","restless",0.4,0.7,0.4,0.55552099908684,"false"
"image-keyboard-response",510,410487,"0.0-3.166-1.166","2sw0rumdd9l9256",847,"128.csv","","null","resources/maskTrios/BBA1.jpg","null","",NA,NA,NA,NA,""
"image-keyboard-response",511,411693,"0.0-3.166-2.166","2sw0rumdd9l9256",847,"128.csv","","null","resources/images/fishbone.png","null","",NA,NA,NA,NA,""
"image-keyboard-response",512,411996,"0.0-3.167-0.167","2sw0rumdd9l9256",847,"128.csv","","300.90000000596046","resources/trios/L4T2A1.jpg","37","restless",0.4,0.7,0.4,0.149928334479691,"true"
"image-keyboard-response",513,412402,"0.0-3.167-1.167","2sw0rumdd9l9256",847,"128.csv","","null","resources/maskTrios/L4BB.jpg","null","",NA,NA,NA,NA,""
"image-keyboard-response",514,413605,"0.0-3.167-2.167","2sw0rumdd9l9256",847,"128.csv","","null","resources/images/coin2.png","null","",NA,NA,NA,NA,""
"image-keyboard-response",515,413931,"0.0-3.168-0.168","2sw0rumdd9l9256",847,"128.csv","","324.90000000596046","resources/trios/L4T1A2.jpg","38","restless",0.4,0.7,0.4,0.89069247395451,"false"
"image-keyboard-response",516,414336,"0.0-3.168-1.168","2sw0rumdd9l9256",847,"128.csv","","null","resources/maskTrios/BT1B.jpg","null","",NA,NA,NA,NA,""
"image-keyboard-response",517,415541,"0.0-3.168-2.168","2sw0rumdd9l9256",847,"128.csv","","null","resources/images/fishbone.png","null","",NA,NA,NA,NA,""
"image-keyboard-response",518,415884,"0.0-3.169-0.169","2sw0rumdd9l9256",847,"128.csv","","342.2000000178814","resources/trios/L4T2A1.jpg","37","restless",0.4,0.7,0.4,0.279834271314542,"true"
"image-keyboard-response",519,416287,"0.0-3.169-1.169","2sw0rumdd9l9256",847,"128.csv","","null","resources/maskTrios/L4BB.jpg","null","",NA,NA,NA,NA,""
"image-keyboard-response",520,417490,"0.0-3.169-2.169","2sw0rumdd9l9256",847,"128.csv","","null","resources/images/coin2.png","null","",NA,NA,NA,NA,""
"image-keyboard-response",521,417922,"0.0-3.170-0.170","2sw0rumdd9l9256",847,"128.csv","","430.5","resources/trios/L1T2A2.jpg","39","restless",0.4,0.7,0.4,0.447573917144714,"false"
"image-keyboard-response",522,418326,"0.0-3.170-1.170","2sw0rumdd9l9256",847,"128.csv","","null","resources/maskTrios/BBA2.jpg","null","",NA,NA,NA,NA,""
"image-keyboard-response",523,419532,"0.0-3.170-2.170","2sw0rumdd9l9256",847,"128.csv","","null","resources/images/fishbone.png","null","",NA,NA,NA,NA,""
"image-keyboard-response",524,419910,"0.0-3.171-0.171","2sw0rumdd9l9256",847,"128.csv","","376.40000000596046","resources/trios/L4T2A2.jpg","37","restless",0.4,0.7,0.4,0.343161551872808,"true"
"image-keyboard-response",525,420316,"0.0-3.171-1.171","2sw0rumdd9l9256",847,"128.csv","","null","resources/maskTrios/L4BB.jpg","null","",NA,NA,NA,NA,""
"image-keyboard-response",526,421522,"0.0-3.171-2.171","2sw0rumdd9l9256",847,"128.csv","","null","resources/images/coin2.png","null","",NA,NA,NA,NA,""
"image-keyboard-response",527,421820,"0.0-3.172-0.172","2sw0rumdd9l9256",847,"128.csv","","296.09999999403954","resources/trios/L4T2A2.jpg","38","restless",0.4,0.7,0.4,0.450797762253645,"true"
"image-keyboard-response",528,422225,"0.0-3.172-1.172","2sw0rumdd9l9256",847,"128.csv","","null","resources/maskTrios/BT2B.jpg","null","",NA,NA,NA,NA,""
"image-keyboard-response",529,423431,"0.0-3.172-2.172","2sw0rumdd9l9256",847,"128.csv","","null","resources/images/coin2.png","null","",NA,NA,NA,NA,""
"image-keyboard-response",530,423747,"0.0-3.173-0.173","2sw0rumdd9l9256",847,"128.csv","","313.59999999403954","resources/trios/L1T2A2.jpg","39","restless",0.4,0.7,0.4,0.983283345192155,"false"
"image-keyboard-response",531,424153,"0.0-3.173-1.173","2sw0rumdd9l9256",847,"128.csv","","null","resources/maskTrios/BBA2.jpg","null","",NA,NA,NA,NA,""
"image-keyboard-response",532,425360,"0.0-3.173-2.173","2sw0rumdd9l9256",847,"128.csv","","null","resources/images/fishbone.png","null","",NA,NA,NA,NA,""
"image-keyboard-response",533,425628,"0.0-3.174-0.174","2sw0rumdd9l9256",847,"128.csv","","266.90000000596046","resources/trios/L4T1A2.jpg","37","restless",0.3,0.7,0.4,0.642202927237663,"false"
"image-keyboard-response",534,426034,"0.0-3.174-1.174","2sw0rumdd9l9256",847,"128.csv","","null","resources/maskTrios/L4BB.jpg","null","",NA,NA,NA,NA,""
"image-keyboard-response",535,427240,"0.0-3.174-2.174","2sw0rumdd9l9256",847,"128.csv","","null","resources/images/fishbone.png","null","",NA,NA,NA,NA,""
"image-keyboard-response",536,427555,"0.0-3.175-0.175","2sw0rumdd9l9256",847,"128.csv","","313","resources/trios/L4T2A2.jpg","38","restless",0.3,0.8,0.4,0.508902036823684,"true"
"image-keyboard-response",537,427961,"0.0-3.175-1.175","2sw0rumdd9l9256",847,"128.csv","","null","resources/maskTrios/BT2B.jpg","null","",NA,NA,NA,NA,""
"image-keyboard-response",538,429163,"0.0-3.175-2.175","2sw0rumdd9l9256",847,"128.csv","","null","resources/images/coin2.png","null","",NA,NA,NA,NA,""
"image-keyboard-response",539,429496,"0.0-3.176-0.176","2sw0rumdd9l9256",847,"128.csv","","330.90000000596046","resources/trios/L4T1A1.jpg","39","restless",0.3,0.8,0.4,0.0498331055349415,"true"
"image-keyboard-response",540,429902,"0.0-3.176-1.176","2sw0rumdd9l9256",847,"128.csv","","null","resources/maskTrios/BBA1.jpg","null","",NA,NA,NA,NA,""
"image-keyboard-response",541,431109,"0.0-3.176-2.176","2sw0rumdd9l9256",847,"128.csv","","null","resources/images/coin2.png","null","",NA,NA,NA,NA,""
"image-keyboard-response",542,431418,"0.0-3.177-0.177","2sw0rumdd9l9256",847,"128.csv","","308.59999999403954","resources/trios/L1T2A2.jpg","37","restless",0.3,0.8,0.3,0.255683339524712,"true"
"image-keyboard-response",543,431825,"0.0-3.177-1.177","2sw0rumdd9l9256",847,"128.csv","","null","resources/maskTrios/L1BB.jpg","null","",NA,NA,NA,NA,""
"image-keyboard-response",544,433032,"0.0-3.177-2.177","2sw0rumdd9l9256",847,"128.csv","","null","resources/images/coin2.png","null","",NA,NA,NA,NA,""
"image-keyboard-response",545,433301,"0.0-3.178-0.178","2sw0rumdd9l9256",847,"128.csv","","268.5","resources/trios/L1T2A2.jpg","38","restless",0.3,0.8,0.3,0.178360627790097,"true"
"image-keyboard-response",546,433705,"0.0-3.178-1.178","2sw0rumdd9l9256",847,"128.csv","","null","resources/maskTrios/BT2B.jpg","null","",NA,NA,NA,NA,""
"image-keyboard-response",547,434910,"0.0-3.178-2.178","2sw0rumdd9l9256",847,"128.csv","","null","resources/images/coin2.png","null","",NA,NA,NA,NA,""
"image-keyboard-response",548,435655,"0.0-3.179-0.179","2sw0rumdd9l9256",847,"128.csv","","744.0999999940395","resources/trios/L1T2A2.jpg","37","restless",0.3,0.8,0.3,0.222705016459164,"true"
"image-keyboard-response",549,436062,"0.0-3.179-1.179","2sw0rumdd9l9256",847,"128.csv","","null","resources/maskTrios/L1BB.jpg","null","",NA,NA,NA,NA,""
"image-keyboard-response",550,437268,"0.0-3.179-2.179","2sw0rumdd9l9256",847,"128.csv","","null","resources/images/coin2.png","null","",NA,NA,NA,NA,""
"image-keyboard-response",551,437509,"0.0-3.180-0.180","2sw0rumdd9l9256",847,"128.csv","","239.89999997615814","resources/trios/L1T1A2.jpg","38","restless",0.3,0.8,0.3,0.766172604529221,"true"
"image-keyboard-response",552,437916,"0.0-3.180-1.180","2sw0rumdd9l9256",847,"128.csv","","null","resources/maskTrios/BT1B.jpg","null","",NA,NA,NA,NA,""
"image-keyboard-response",553,439122,"0.0-3.180-2.180","2sw0rumdd9l9256",847,"128.csv","","null","resources/images/coin2.png","null","",NA,NA,NA,NA,""
"image-keyboard-response",554,439358,"0.0-3.181-0.181","2sw0rumdd9l9256",847,"128.csv","","234.5","resources/trios/L1T1A2.jpg","37","restless",0.3,0.8,0.3,0.251344665035634,"true"
"image-keyboard-response",555,439764,"0.0-3.181-1.181","2sw0rumdd9l9256",847,"128.csv","","null","resources/maskTrios/L1BB.jpg","null","",NA,NA,NA,NA,""
"image-keyboard-response",556,440970,"0.0-3.181-2.181","2sw0rumdd9l9256",847,"128.csv","","null","resources/images/coin2.png","null","",NA,NA,NA,NA,""
"image-keyboard-response",557,441252,"0.0-3.182-0.182","2sw0rumdd9l9256",847,"128.csv","","280","resources/trios/L1T2A1.jpg","38","restless",0.3,0.8,0.3,0.78996034211523,"true"
"image-keyboard-response",558,441658,"0.0-3.182-1.182","2sw0rumdd9l9256",847,"128.csv","","null","resources/maskTrios/BT2B.jpg","null","",NA,NA,NA,NA,""
"image-keyboard-response",559,442865,"0.0-3.182-2.182","2sw0rumdd9l9256",847,"128.csv","","null","resources/images/coin2.png","null","",NA,NA,NA,NA,""
"image-keyboard-response",560,443169,"0.0-3.183-0.183","2sw0rumdd9l9256",847,"128.csv","","303","resources/trios/L4T2A2.jpg","37","restless",0.3,0.8,0.3,0.789972845855984,"false"
"image-keyboard-response",561,443576,"0.0-3.183-1.183","2sw0rumdd9l9256",847,"128.csv","","null","resources/maskTrios/L4BB.jpg","null","",NA,NA,NA,NA,""
"image-keyboard-response",562,444777,"0.0-3.183-2.183","2sw0rumdd9l9256",847,"128.csv","","null","resources/images/fishbone.png","null","",NA,NA,NA,NA,""
"image-keyboard-response",563,445055,"0.0-3.184-0.184","2sw0rumdd9l9256",847,"128.csv","","276.60000002384186","resources/trios/L1T2A2.jpg","39","restless",0.3,0.8,0.3,0.236668705765467,"true"
"image-keyboard-response",564,445458,"0.0-3.184-1.184","2sw0rumdd9l9256",847,"128.csv","","null","resources/maskTrios/BBA2.jpg","null","",NA,NA,NA,NA,""
"image-keyboard-response",565,446665,"0.0-3.184-2.184","2sw0rumdd9l9256",847,"128.csv","","null","resources/images/coin2.png","null","",NA,NA,NA,NA,""
"image-keyboard-response",566,446961,"0.0-3.185-0.185","2sw0rumdd9l9256",847,"128.csv","","294.40000000596046","resources/trios/L4T2A1.jpg","39","restless",0.3,0.8,0.3,0.0990478477707333,"true"
"image-keyboard-response",567,447366,"0.0-3.185-1.185","2sw0rumdd9l9256",847,"128.csv","","null","resources/maskTrios/BBA1.jpg","null","",NA,NA,NA,NA,""
"image-keyboard-response",568,448568,"0.0-3.185-2.185","2sw0rumdd9l9256",847,"128.csv","","null","resources/images/coin2.png","null","",NA,NA,NA,NA,""
"image-keyboard-response",569,448820,"0.0-3.186-0.186","2sw0rumdd9l9256",847,"128.csv","","250.7999999821186","resources/trios/L4T2A1.jpg","39","restless",0.3,0.9,0.3,0.705435404925603,"false"
"image-keyboard-response",570,449227,"0.0-3.186-1.186","2sw0rumdd9l9256",847,"128.csv","","null","resources/maskTrios/BBA1.jpg","null","",NA,NA,NA,NA,""
"image-keyboard-response",571,450432,"0.0-3.186-2.186","2sw0rumdd9l9256",847,"128.csv","","null","resources/images/fishbone.png","null","",NA,NA,NA,NA,""
"image-keyboard-response",572,450750,"0.0-3.187-0.187","2sw0rumdd9l9256",847,"128.csv","","316.2000000178814","resources/trios/L4T1A1.jpg","37","restless",0.3,0.9,0.3,0.938798030312524,"false"
"image-keyboard-response",573,451156,"0.0-3.187-1.187","2sw0rumdd9l9256",847,"128.csv","","null","resources/maskTrios/L4BB.jpg","null","",NA,NA,NA,NA,""
"image-keyboard-response",574,452363,"0.0-3.187-2.187","2sw0rumdd9l9256",847,"128.csv","","null","resources/images/fishbone.png","null","",NA,NA,NA,NA,""
"image-keyboard-response",575,452394,"0.0-3.188-0.188","2sw0rumdd9l9256",847,"128.csv","","30.400000005960464","resources/trios/L4T1A1.jpg","38","restless",0.3,0.9,0.3,0.93711613776598,"false"
"image-keyboard-response",576,452801,"0.0-3.188-1.188","2sw0rumdd9l9256",847,"128.csv","","null","resources/maskTrios/BT1B.jpg","null","",NA,NA,NA,NA,""
"image-keyboard-response",577,454007,"0.0-3.188-2.188","2sw0rumdd9l9256",847,"128.csv","","null","resources/images/fishbone.png","null","",NA,NA,NA,NA,""
"image-keyboard-response",578,454413,"0.0-3.189-0.189","2sw0rumdd9l9256",847,"128.csv","","404.40000000596046","resources/trios/L1T1A2.jpg","37","restless",0.3,0.9,0.3,0.111845820397928,"true"
"image-keyboard-response",579,454817,"0.0-3.189-1.189","2sw0rumdd9l9256",847,"128.csv","","null","resources/maskTrios/L1BB.jpg","null","",NA,NA,NA,NA,""
"image-keyboard-response",580,456023,"0.0-3.189-2.189","2sw0rumdd9l9256",847,"128.csv","","null","resources/images/coin2.png","null","",NA,NA,NA,NA,""
"image-keyboard-response",581,456285,"0.0-3.190-0.190","2sw0rumdd9l9256",847,"128.csv","","260.2000000178814","resources/trios/L4T1A2.jpg","39","restless",0.3,0.9,0.3,0.766732226742973,"false"
"image-keyboard-response",582,456692,"0.0-3.190-1.190","2sw0rumdd9l9256",847,"128.csv","","null","resources/maskTrios/BBA2.jpg","null","",NA,NA,NA,NA,""
"image-keyboard-response",583,457898,"0.0-3.190-2.190","2sw0rumdd9l9256",847,"128.csv","","null","resources/images/fishbone.png","null","",NA,NA,NA,NA,""
"image-keyboard-response",584,458392,"0.0-3.191-0.191","2sw0rumdd9l9256",847,"128.csv","","492.30000001192093","resources/trios/L4T1A2.jpg","37","restless",0.3,0.9,0.3,0.378467371568369,"false"
"image-keyboard-response",585,458798,"0.0-3.191-1.191","2sw0rumdd9l9256",847,"128.csv","","null","resources/maskTrios/L4BB.jpg","null","",NA,NA,NA,NA,""
"image-keyboard-response",586,460002,"0.0-3.191-2.191","2sw0rumdd9l9256",847,"128.csv","","null","resources/images/fishbone.png","null","",NA,NA,NA,NA,""
"image-keyboard-response",587,462055,"0.0-3.192-0.192","2sw0rumdd9l9256",847,"128.csv","","2052.199999988079","resources/trios/L1T1A2.jpg","39","restless",0.3,0.9,0.3,0.011432672796494,"true"
"image-keyboard-response",588,462462,"0.0-3.192-1.192","2sw0rumdd9l9256",847,"128.csv","","null","resources/maskTrios/BBA2.jpg","null","",NA,NA,NA,NA,""
"image-keyboard-response",589,463668,"0.0-3.192-2.192","2sw0rumdd9l9256",847,"128.csv","","null","resources/images/coin2.png","null","",NA,NA,NA,NA,""
"image-keyboard-response",590,464871,"0.0-3.193-0.193","2sw0rumdd9l9256",847,"128.csv","","1202","resources/trios/L1T1A1.jpg","38","restless",0.4,0.9,0.3,0.73990378699566,"true"
"image-keyboard-response",591,465278,"0.0-3.193-1.193","2sw0rumdd9l9256",847,"128.csv","","null","resources/maskTrios/BT1B.jpg","null","",NA,NA,NA,NA,""
"image-keyboard-response",592,466485,"0.0-3.193-2.193","2sw0rumdd9l9256",847,"128.csv","","null","resources/images/coin2.png","null","",NA,NA,NA,NA,""
"image-keyboard-response",593,466769,"0.0-3.194-0.194","2sw0rumdd9l9256",847,"128.csv","","282.60000002384186","resources/trios/L4T1A2.jpg","37","restless",0.4,0.9,0.3,0.529443261184351,"false"
"image-keyboard-response",594,467171,"0.0-3.194-1.194","2sw0rumdd9l9256",847,"128.csv","","null","resources/maskTrios/L4BB.jpg","null","",NA,NA,NA,NA,""
"image-keyboard-response",595,468377,"0.0-3.194-2.194","2sw0rumdd9l9256",847,"128.csv","","null","resources/images/fishbone.png","null","",NA,NA,NA,NA,""
"image-keyboard-response",596,468674,"0.0-3.195-0.195","2sw0rumdd9l9256",847,"128.csv","","295.40000000596046","resources/trios/L1T1A1.jpg","39","restless",0.4,0.9,0.3,0.916156651737969,"false"
"image-keyboard-response",597,469080,"0.0-3.195-1.195","2sw0rumdd9l9256",847,"128.csv","","null","resources/maskTrios/BBA1.jpg","null","",NA,NA,NA,NA,""
"image-keyboard-response",598,470286,"0.0-3.195-2.195","2sw0rumdd9l9256",847,"128.csv","","null","resources/images/fishbone.png","null","",NA,NA,NA,NA,""
"image-keyboard-response",599,470699,"0.0-3.196-0.196","2sw0rumdd9l9256",847,"128.csv","","410.7999999821186","resources/trios/L1T1A2.jpg","38","restless",0.4,0.9,0.3,0.193288754764424,"true"
"image-keyboard-response",600,471101,"0.0-3.196-1.196","2sw0rumdd9l9256",847,"128.csv","","null","resources/maskTrios/BT1B.jpg","null","",NA,NA,NA,NA,""
"image-keyboard-response",601,472303,"0.0-3.196-2.196","2sw0rumdd9l9256",847,"128.csv","","null","resources/images/coin2.png","null","",NA,NA,NA,NA,""
"image-keyboard-response",602,472628,"0.0-3.197-0.197","2sw0rumdd9l9256",847,"128.csv","","323.39999997615814","resources/trios/L1T1A2.jpg","38","restless",0.4,0.9,0.2,0.871716097664,"true"
"image-keyboard-response",603,473035,"0.0-3.197-1.197","2sw0rumdd9l9256",847,"128.csv","","null","resources/maskTrios/BT1B.jpg","null","",NA,NA,NA,NA,""
"image-keyboard-response",604,474236,"0.0-3.197-2.197","2sw0rumdd9l9256",847,"128.csv","","null","resources/images/coin2.png","null","",NA,NA,NA,NA,""
"image-keyboard-response",605,474594,"0.0-3.198-0.198","2sw0rumdd9l9256",847,"128.csv","","356.30000001192093","resources/trios/L1T1A2.jpg","38","restless",0.4,0.9,0.2,0.781133573014278,"true"
